Subject,Condition,Order,Start,k,Trial,x,Response,Reversal,RT
S51,simple,1,cerca,1,1,20,0,0,0.662631281999893
S51,simple,1,cerca,1,2,40,0,0,0.649694834000002
S51,simple,1,cerca,1,3,60,0,0,0.625750307000089
S51,simple,1,cerca,1,4,80,0,0,0.672395645000051
S51,simple,1,cerca,1,5,100,0,0,0.966167939000115
S51,simple,1,cerca,1,6,120,1,1,0.707145474999834
S51,simple,1,cerca,1,7,100,0,2,1.02340913200032
S51,simple,1,cerca,1,8,120,1,3,0.658633876000295
S51,simple,1,cerca,1,9,110,1,0,1.12865462799982
S51,simple,1,cerca,1,10,100,0,4,0.79288661999999
S51,simple,1,cerca,1,11,110,0,0,0.893916945000001
S51,simple,1,cerca,1,12,120,0,0,1.26170101800017
S51,simple,1,cerca,1,13,130,1,5,0.69215043200029
S51,simple,1,cerca,1,14,120,0,6,1.34162374800007
S51,simple,1,cerca,1,15,130,1,7,0.674208779999844
S51,simple,1,cerca,1,16,120,1,0,0.721671543999946
S51,simple,1,cerca,1,17,110,1,0,1.07125078900026
S51,simple,1,cerca,1,18,100,0,8,0.733544957000049
S51,simple,1,cerca,1,19,110,0,0,0.879755617999763
S51,simple,1,cerca,1,20,120,0,0,0.969200081999588
S51,simple,1,cerca,1,21,130,0,0,0.759626125000068
S51,simple,1,cerca,1,22,140,0,0,0.860621467000328
S51,simple,1,cerca,1,23,150,0,0,1.41439650400025
S51,simple,1,cerca,1,24,160,1,9,0.655556410000372
S51,simple,1,cerca,1,25,150,1,0,0.727031775999876
S51,simple,1,cerca,1,26,140,1,0,1.042620833
S51,simple,1,cerca,1,27,130,1,0,0.999158990000069
S51,simple,1,cerca,1,28,120,1,0,1.50672310100026
S51,simple,1,cerca,1,29,110,0,10,1.12011630699999
S51,simple,1,cerca,1,30,120,0,0,0.888693541000066
S51,simple,1,cerca,1,31,130,0,0,0.827163378000023
S51,simple,1,cerca,1,32,140,0,0,0.945315864999884
S51,simple,1,cerca,1,33,150,1,11,0.833635563999906
S51,simple,1,cerca,1,34,140,0,12,1.10246984300011
S51,simple,2,cerca,1,1,20,0,0,0.657008549000238
S51,simple,2,cerca,1,2,40,0,0,0.633885500999895
S51,simple,2,cerca,1,3,60,0,0,0.654952294000395
S51,simple,2,cerca,1,4,80,0,0,0.56112542000028
S51,simple,2,cerca,1,5,100,0,0,0.635532651999711
S51,simple,2,cerca,1,6,120,1,1,0.915172112000164
S51,simple,2,cerca,1,7,100,0,2,1.13607546200001
S51,simple,2,cerca,1,8,120,1,3,0.697219293999751
S51,simple,2,cerca,1,9,110,1,0,0.669520553999973
S51,simple,2,cerca,1,10,100,0,4,1.0219283499996
S51,simple,2,cerca,1,11,110,0,0,1.00327764500025
S51,simple,2,cerca,1,12,120,1,5,0.601847160000034
S51,simple,2,cerca,1,13,110,1,0,0.700107851999746
S51,simple,2,cerca,1,14,100,1,0,0.645278752000195
S51,simple,2,cerca,1,15,90,0,6,0.883556195999972
S51,simple,2,cerca,1,16,100,0,0,0.731976821999979
S51,simple,2,cerca,1,17,110,0,0,0.949666199000148
S51,simple,2,cerca,1,18,120,1,7,0.615094299999782
S51,simple,2,cerca,1,19,110,1,0,0.865110600999742
S51,simple,2,cerca,1,20,100,1,0,1.15532538100024
S51,simple,2,cerca,1,21,90,0,8,0.634519066999928
S51,simple,2,cerca,1,22,100,0,0,0.545926588999919
S51,simple,2,cerca,1,23,110,0,0,0.588871353999821
S51,simple,2,cerca,1,24,120,0,0,0.690421203999904
S51,simple,2,cerca,1,25,130,0,0,0.72697379400006
S51,simple,2,cerca,1,26,140,1,9,0.529189116999987
S51,simple,2,cerca,1,27,130,0,10,1.25762619500028
S51,simple,2,cerca,1,28,140,1,11,0.620807506999881
S51,simple,2,cerca,1,29,130,1,0,0.653233
S51,simple,2,cerca,1,30,120,1,0,0.793667728999935
S51,simple,2,cerca,1,31,110,0,12,0.948744586999965
S51,simple,3,lejos,1,1,220,1,0,0.689159343000028
S51,simple,3,lejos,1,2,200,1,0,0.750293804999728
S51,simple,3,lejos,1,3,180,1,0,0.722771595000268
S51,simple,3,lejos,1,4,160,1,0,1.067315624
S51,simple,3,lejos,1,5,140,1,0,1.3080691780001
S51,simple,3,lejos,1,6,120,0,1,1.41274568999961
S51,simple,3,lejos,1,7,140,0,0,0.810645854000086
S51,simple,3,lejos,1,8,160,1,2,0.747112397999899
S51,simple,3,lejos,1,9,140,0,3,0.931603583999731
S51,simple,3,lejos,1,10,150,1,4,0.702385993000007
S51,simple,3,lejos,1,11,140,0,5,0.974217244000101
S51,simple,3,lejos,1,12,150,1,6,0.91455348799991
S51,simple,3,lejos,1,13,140,1,0,0.992727741999715
S51,simple,3,lejos,1,14,130,0,7,1.03396164600008
S51,simple,3,lejos,1,15,140,0,0,0.756622128999879
S51,simple,3,lejos,1,16,150,1,8,0.99783014500008
S51,simple,3,lejos,1,17,140,0,9,1.02742742300006
S51,simple,3,lejos,1,18,150,0,0,0.882192052000391
S51,simple,3,lejos,1,19,160,1,10,0.765413977999742
S51,simple,3,lejos,1,20,150,1,0,1.0793463570003
S51,simple,3,lejos,1,21,140,0,11,0.951438361000328
S51,simple,3,lejos,1,22,150,0,0,0.861161611000171
S51,simple,3,lejos,1,23,160,0,0,1.08028515599972
S51,simple,3,lejos,1,24,170,0,0,0.787753436000003
S51,simple,3,lejos,1,25,180,1,12,0.924710594999851
S51,simple,4,lejos,1,1,220,1,0,0.754230592000113
S51,simple,4,lejos,1,2,200,1,0,0.682624678000138
S51,simple,4,lejos,1,3,180,1,0,0.71366308000006
S51,simple,4,lejos,1,4,160,1,0,0.816280056999858
S51,simple,4,lejos,1,5,140,0,1,0.853559885999857
S51,simple,4,lejos,1,6,160,0,0,0.909514940999998
S51,simple,4,lejos,1,7,180,1,2,0.70675405799966
S51,simple,4,lejos,1,8,160,1,0,0.871724282999821
S51,simple,4,lejos,1,9,150,1,0,1.14824242899977
S51,simple,4,lejos,1,10,140,1,0,0.816057015000297
S51,simple,4,lejos,1,11,130,0,3,0.826004347999969
S51,simple,4,lejos,1,12,140,0,0,0.760010179000346
S51,simple,4,lejos,1,13,150,0,0,0.916814066999905
S51,simple,4,lejos,1,14,160,1,4,0.837469464999685
S51,simple,4,lejos,1,15,150,1,0,1.23869146600009
S51,simple,4,lejos,1,16,140,1,0,1.40401959099972
S51,simple,4,lejos,1,17,130,0,5,1.17917799999987
S51,simple,4,lejos,1,18,140,0,0,1.46153192800011
S51,simple,4,lejos,1,19,150,1,6,1.56061245000001
S51,simple,4,lejos,1,20,140,0,7,1.36591792299987
S51,simple,4,lejos,1,21,150,1,8,0.899436033000256
S51,simple,4,lejos,1,22,140,1,0,1.15393397199978
S51,simple,4,lejos,1,23,130,0,9,1.52594811100016
S51,simple,4,lejos,1,24,140,1,10,0.900969029000407
S51,simple,4,lejos,1,25,130,0,11,1.04784956699996
S51,simple,4,lejos,1,26,140,0,0,1.09862495799962
S51,simple,4,lejos,1,27,150,0,0,0.845997060000172
S51,simple,4,lejos,1,28,160,0,0,0.701413715999934
S51,simple,4,lejos,1,29,170,0,0,0.986499078000179
S51,simple,4,lejos,1,30,180,1,12,0.860137667000345
S52,simple,1,cerca,1,1,20,0,0,0.691774261999853
S52,simple,1,cerca,1,2,40,0,0,0.461510137999539
S52,simple,1,cerca,1,3,60,0,0,0.439373092999631
S52,simple,1,cerca,1,4,80,0,0,0.712669125000502
S52,simple,1,cerca,1,5,100,1,1,1.4604663629998
S52,simple,1,cerca,1,6,80,0,2,0.68464702700021
S52,simple,1,cerca,1,7,100,0,0,1.57234083499952
S52,simple,1,cerca,1,8,110,1,3,0.57595700300044
S52,simple,1,cerca,1,9,100,1,0,1.30893694799943
S52,simple,1,cerca,1,10,90,0,4,0.940153192000253
S52,simple,1,cerca,1,11,100,0,0,0.710305603999586
S52,simple,1,cerca,1,12,110,1,5,0.740893989000142
S52,simple,1,cerca,1,13,100,0,6,0.817180910000388
S52,simple,1,cerca,1,14,110,1,7,0.669897288000357
S52,simple,1,cerca,1,15,100,0,8,0.687417717999779
S52,simple,1,cerca,1,16,110,0,0,0.816356192000057
S52,simple,1,cerca,1,17,120,1,9,0.829731922000065
S52,simple,1,cerca,1,18,110,0,10,0.882915831000901
S52,simple,1,cerca,1,19,120,0,0,1.15301847499995
S52,simple,1,cerca,1,20,130,1,11,0.646320011000171
S52,simple,1,cerca,1,21,120,1,0,0.682411450000473
S52,simple,1,cerca,1,22,110,1,0,0.682710542000677
S52,simple,1,cerca,1,23,100,0,12,0.986767143999714
S52,simple,2,lejos,1,1,220,1,0,0.613488158999644
S52,simple,2,lejos,1,2,200,1,0,0.560266542000136
S52,simple,2,lejos,1,3,180,1,0,0.520002010000098
S52,simple,2,lejos,1,4,160,1,0,0.53758385799938
S52,simple,2,lejos,1,5,140,1,0,0.952980539000237
S52,simple,2,lejos,1,6,120,0,1,1.22122253299949
S52,simple,2,lejos,1,7,140,1,2,0.868643004999285
S52,simple,2,lejos,1,8,120,1,0,0.757296417999896
S52,simple,2,lejos,1,9,110,0,3,0.87286725299964
S52,simple,2,lejos,1,10,120,0,0,0.737406332999853
S52,simple,2,lejos,1,11,130,0,0,1.03987873500046
S52,simple,2,lejos,1,12,140,1,4,0.510185617000388
S52,simple,2,lejos,1,13,130,0,5,0.940265872000055
S52,simple,2,lejos,1,14,140,1,6,3.72012598299989
S52,simple,2,lejos,1,15,130,1,0,1.33608241799993
S52,simple,2,lejos,1,16,120,0,7,0.670637975999853
S52,simple,2,lejos,1,17,130,0,0,1.406256149
S52,simple,2,lejos,1,18,140,1,8,0.623109131000092
S52,simple,2,lejos,1,19,130,0,9,0.652847671000018
S52,simple,2,lejos,1,20,140,0,0,1.05420370000047
S52,simple,2,lejos,1,21,150,1,10,0.616637703000379
S52,simple,2,lejos,1,22,140,1,0,1.11257181199926
S52,simple,2,lejos,1,23,130,0,11,0.887849740000092
S52,simple,2,lejos,1,24,140,0,0,0.751179083000352
S52,simple,2,lejos,1,25,150,1,12,0.637868236000031
S52,simple,3,cerca,1,1,20,0,0,0.694181769999886
S52,simple,3,cerca,1,2,40,0,0,0.450999403000424
S52,simple,3,cerca,1,3,60,0,0,0.31615542200052
S52,simple,3,cerca,1,4,80,0,0,0.598353886000041
S52,simple,3,cerca,1,5,100,0,0,0.84977575800076
S52,simple,3,cerca,1,6,120,1,1,0.543165211000087
S52,simple,3,cerca,1,7,100,1,0,0.584107122000205
S52,simple,3,cerca,1,8,80,0,2,0.618754502999764
S52,simple,3,cerca,1,9,100,0,0,0.977945960000397
S52,simple,3,cerca,1,10,110,1,3,0.766410916000495
S52,simple,3,cerca,1,11,100,0,4,0.829513006000525
S52,simple,3,cerca,1,12,110,1,5,1.46112919899952
S52,simple,3,cerca,1,13,100,0,6,1.13588465400062
S52,simple,3,cerca,1,14,110,1,7,1.0627023220004
S52,simple,3,cerca,1,15,100,0,8,0.840976454999691
S52,simple,3,cerca,1,16,110,0,0,1.15594770600001
S52,simple,3,cerca,1,17,120,0,0,1.27869266800008
S52,simple,3,cerca,1,18,130,1,9,4.67157265599963
S52,simple,3,cerca,1,19,120,1,0,0.886252104999585
S52,simple,3,cerca,1,20,110,0,10,0.766811712000163
S52,simple,3,cerca,1,21,120,1,11,0.59065893099978
S52,simple,3,cerca,1,22,110,0,12,0.837053771999308
S52,simple,4,lejos,1,1,220,1,0,0.667810620999262
S52,simple,4,lejos,1,2,200,1,0,0.455159201000242
S52,simple,4,lejos,1,3,180,1,0,0.479731098999764
S52,simple,4,lejos,1,4,160,1,0,0.498647926000558
S52,simple,4,lejos,1,5,140,1,0,0.724673857000198
S52,simple,4,lejos,1,6,120,1,0,0.9375843910002
S52,simple,4,lejos,1,7,100,0,1,0.639006096999765
S52,simple,4,lejos,1,8,120,0,0,1.00516084900028
S52,simple,4,lejos,1,9,140,1,2,0.901245621999806
S52,simple,4,lejos,1,10,120,0,3,0.807613760000095
S52,simple,4,lejos,1,11,130,1,4,1.29652086199985
S52,simple,4,lejos,1,12,120,1,0,1.1800182220004
S52,simple,4,lejos,1,13,110,1,0,0.668066136000562
S52,simple,4,lejos,1,14,100,0,5,0.845432180999524
S52,simple,4,lejos,1,15,110,0,0,0.962592793999647
S52,simple,4,lejos,1,16,120,0,0,1.6231945189993
S52,simple,4,lejos,1,17,130,1,6,0.706951565999589
S52,simple,4,lejos,1,18,120,0,7,0.916707377999955
S52,simple,4,lejos,1,19,130,1,8,0.653013899000143
S52,simple,4,lejos,1,20,120,1,0,0.95096355700025
S52,simple,4,lejos,1,21,110,0,9,1.4204401500001
S52,simple,4,lejos,1,22,120,1,10,1.27327011100078
S52,simple,4,lejos,1,23,110,1,0,1.22444247599924
S52,simple,4,lejos,1,24,100,0,11,0.678223350000735
S52,simple,4,lejos,1,25,110,0,0,1.23894163899968
S52,simple,4,lejos,1,26,120,1,12,1.42393034100041
S53,simple,1,cerca,1,1,20,0,0,0.598749103000955
S53,simple,1,cerca,1,2,40,0,0,0.494444979000036
S53,simple,1,cerca,1,3,60,0,0,0.716467801999897
S53,simple,1,cerca,1,4,80,0,0,0.793881267998586
S53,simple,1,cerca,1,5,100,1,1,0.728550666999581
S53,simple,1,cerca,1,6,80,0,2,1.11279453600037
S53,simple,1,cerca,1,7,100,1,3,0.642943189999642
S53,simple,1,cerca,1,8,90,1,0,0.562606502999188
S53,simple,1,cerca,1,9,80,0,4,1.26278922900019
S53,simple,1,cerca,1,10,90,0,0,1.03548484299972
S53,simple,1,cerca,1,11,100,1,5,0.525428876999285
S53,simple,1,cerca,1,12,90,1,0,0.612607318998926
S53,simple,1,cerca,1,13,80,0,6,0.902191457998924
S53,simple,1,cerca,1,14,90,1,7,0.92108276900035
S53,simple,1,cerca,1,15,80,0,8,0.993017782999232
S53,simple,1,cerca,1,16,90,1,9,0.754731964998427
S53,simple,1,cerca,1,17,80,0,10,1.19142676900083
S53,simple,1,cerca,1,18,90,1,11,0.90935028399872
S53,simple,1,cerca,1,19,80,1,0,1.50430663899897
S53,simple,1,cerca,1,20,70,0,12,0.995587731998967
S53,simple,2,lejos,1,1,220,1,0,0.845148546999553
S53,simple,2,lejos,1,2,200,1,0,0.771768765998786
S53,simple,2,lejos,1,3,180,1,0,0.722208326000327
S53,simple,2,lejos,1,4,160,1,0,0.680326874000457
S53,simple,2,lejos,1,5,140,1,0,1.2559902640005
S53,simple,2,lejos,1,6,120,1,0,2.93276207099916
S53,simple,2,lejos,1,7,100,0,1,0.809024361000411
S53,simple,2,lejos,1,8,120,0,0,0.907203882999966
S53,simple,2,lejos,1,9,140,1,2,1.11347559500064
S53,simple,2,lejos,1,10,120,0,3,2.48466691800058
S53,simple,2,lejos,1,11,130,1,4,0.68343214900051
S53,simple,2,lejos,1,12,120,0,5,2.61299640600009
S53,simple,2,lejos,1,13,130,1,6,0.562699400999918
S53,simple,2,lejos,1,14,120,1,0,0.761221452001337
S53,simple,2,lejos,1,15,110,0,7,1.55419648399948
S53,simple,2,lejos,1,16,120,0,0,0.882209424000393
S53,simple,2,lejos,1,17,130,0,0,0.889274490999014
S53,simple,2,lejos,1,18,140,1,8,1.34075454400045
S53,simple,2,lejos,1,19,130,1,0,1.62345559300047
S53,simple,2,lejos,1,20,120,0,9,0.870923173999472
S53,simple,2,lejos,1,21,130,0,0,0.940772314999776
S53,simple,2,lejos,1,22,140,0,0,1.29483108999921
S53,simple,2,lejos,1,23,150,1,10,1.71384206399853
S53,simple,2,lejos,1,24,140,1,0,0.882134114999644
S53,simple,2,lejos,1,25,130,1,0,2.23638034199939
S53,simple,2,lejos,1,26,120,0,11,0.903212451001309
S53,simple,2,lejos,1,27,130,0,0,1.96064619500066
S53,simple,2,lejos,1,28,140,0,0,2.99464639700091
S53,simple,2,lejos,1,29,150,0,0,1.13274111400096
S53,simple,2,lejos,1,30,160,1,12,0.742306011999972
S53,simple,3,lejos,1,1,220,1,0,0.657392522000009
S53,simple,3,lejos,1,2,200,1,0,0.664154587999292
S53,simple,3,lejos,1,3,180,1,0,0.965672062000522
S53,simple,3,lejos,1,4,160,1,0,0.851583699999537
S53,simple,3,lejos,1,5,140,0,1,1.23693972900037
S53,simple,3,lejos,1,6,160,0,0,2.52747171699957
S53,simple,3,lejos,1,7,180,1,2,1.18038198800059
S53,simple,3,lejos,1,8,160,0,3,2.66514866299985
S53,simple,3,lejos,1,9,170,0,0,2.76865802199973
S53,simple,3,lejos,1,10,180,0,0,3.49030516499988
S53,simple,3,lejos,1,11,190,1,4,2.37655600700054
S53,simple,3,lejos,1,12,180,1,0,1.13037691699901
S53,simple,3,lejos,1,13,170,1,0,2.91142825200041
S53,simple,3,lejos,1,14,160,1,0,2.31887279800139
S53,simple,3,lejos,1,15,150,0,5,2.11240429200006
S53,simple,3,lejos,1,16,160,0,0,3.67020365299868
S53,simple,3,lejos,1,17,170,1,6,1.50005152599988
S53,simple,3,lejos,1,18,160,1,0,1.769390079
S53,simple,3,lejos,1,19,150,1,0,2.69936176900046
S53,simple,3,lejos,1,20,140,0,7,1.90342135899846
S53,simple,3,lejos,1,21,150,0,0,1.36483017799947
S53,simple,3,lejos,1,22,160,0,0,2.69562110200059
S53,simple,3,lejos,1,23,170,0,0,1.31305775200053
S53,simple,3,lejos,1,24,180,1,8,0.739834826999868
S53,simple,3,lejos,1,25,170,1,0,0.516583943999649
S53,simple,3,lejos,1,26,160,1,0,0.692926790999991
S53,simple,3,lejos,1,27,150,1,0,0.688367957000082
S53,simple,3,lejos,1,28,140,1,0,0.792815921999136
S53,simple,3,lejos,1,29,130,0,9,1.22985936100122
S53,simple,3,lejos,1,30,140,0,0,1.37638951299959
S53,simple,3,lejos,1,31,150,0,0,1.53193187099896
S53,simple,3,lejos,1,32,160,0,0,2.03806154499944
S53,simple,3,lejos,1,33,170,0,0,3.16594039499978
S53,simple,3,lejos,1,34,180,0,0,3.27636468399942
S53,simple,3,lejos,1,35,190,1,10,1.16964101899976
S53,simple,3,lejos,1,36,180,1,0,2.9791767379993
S53,simple,3,lejos,1,37,170,1,0,0.622225832999902
S53,simple,3,lejos,1,38,160,1,0,0.667501189000177
S53,simple,3,lejos,1,39,150,1,0,3.56022533599935
S53,simple,3,lejos,1,40,140,0,11,3.09107170400057
S53,simple,3,lejos,1,41,150,0,0,1.78095435100113
S53,simple,3,lejos,1,42,160,1,12,0.969507361000069
S53,simple,4,cerca,1,1,20,0,0,2.02541378900059
S53,simple,4,cerca,1,2,40,0,0,1.33220803099903
S53,simple,4,cerca,1,3,60,0,0,1.29879338399951
S53,simple,4,cerca,1,4,80,0,0,2.09646687500026
S53,simple,4,cerca,1,5,100,1,1,3.05373985099868
S53,simple,4,cerca,1,6,80,0,2,1.23016238300079
S53,simple,4,cerca,1,7,100,1,3,2.71208919300079
S53,simple,4,cerca,1,8,90,1,0,1.94939825500114
S53,simple,4,cerca,1,9,80,0,4,0.892067126000256
S53,simple,4,cerca,1,10,90,1,5,1.48152506100087
S53,simple,4,cerca,1,11,80,0,6,1.04641642100069
S53,simple,4,cerca,1,12,90,0,0,2.15014014199915
S53,simple,4,cerca,1,13,100,1,7,1.98691947399857
S53,simple,4,cerca,1,14,90,0,8,1.99744451900006
S53,simple,4,cerca,1,15,100,1,9,1.98504306799987
S53,simple,4,cerca,1,16,90,0,10,1.64027773799899
S53,simple,4,cerca,1,17,100,1,11,0.952949491998879
S53,simple,4,cerca,1,18,90,0,12,1.10957690699979
S54,simple,1,lejos,1,1,220,1,0,1.90950963999967
S54,simple,1,lejos,1,2,200,1,0,1.02457593799954
S54,simple,1,lejos,1,3,180,1,0,0.83349425599954
S54,simple,1,lejos,1,4,160,1,0,0.812714364001295
S54,simple,1,lejos,1,5,140,0,1,1.44918840499849
S54,simple,1,lejos,1,6,160,1,2,2.92217602099845
S54,simple,1,lejos,1,7,140,1,0,2.7365368360006
S54,simple,1,lejos,1,8,130,0,3,2.51347550399987
S54,simple,1,lejos,1,9,140,1,4,1.03154980599902
S54,simple,1,lejos,1,10,130,1,0,2.49058098799833
S54,simple,1,lejos,1,11,120,0,5,0.906499016999078
S54,simple,1,lejos,1,12,130,0,0,0.649709239000003
S54,simple,1,lejos,1,13,140,0,0,2.48008701300023
S54,simple,1,lejos,1,14,150,1,6,1.74939682300101
S54,simple,1,lejos,1,15,140,1,0,1.35196332099986
S54,simple,1,lejos,1,16,130,0,7,1.24074396299875
S54,simple,1,lejos,1,17,140,0,0,2.82960477400047
S54,simple,1,lejos,1,18,150,1,8,2.06773821000024
S54,simple,1,lejos,1,19,140,1,0,1.99445357900004
S54,simple,1,lejos,1,20,130,1,0,2.79962021500069
S54,simple,1,lejos,1,21,120,0,9,0.550021394999931
S54,simple,1,lejos,1,22,130,0,0,1.84331648599982
S54,simple,1,lejos,1,23,140,0,0,2.59623157500027
S54,simple,1,lejos,1,24,150,1,10,0.952713945998767
S54,simple,1,lejos,1,25,140,1,0,2.68506332199831
S54,simple,1,lejos,1,26,130,1,0,2.21272389499973
S54,simple,1,lejos,1,27,120,0,11,1.02609360899987
S54,simple,1,lejos,1,28,130,0,0,1.53392198399888
S54,simple,1,lejos,1,29,140,1,12,1.3883972170006
S54,simple,2,lejos,1,1,220,1,0,2.22747172599884
S54,simple,2,lejos,1,2,200,1,0,1.15440033400046
S54,simple,2,lejos,1,3,180,1,0,2.4090500809998
S54,simple,2,lejos,1,4,160,1,0,1.31715373900079
S54,simple,2,lejos,1,5,140,0,1,0.856953397000325
S54,simple,2,lejos,1,6,160,1,2,1.86806966200129
S54,simple,2,lejos,1,7,140,0,3,1.34803839500091
S54,simple,2,lejos,1,8,150,1,4,1.92068670099979
S54,simple,2,lejos,1,9,140,0,5,1.80067094200058
S54,simple,2,lejos,1,10,150,1,6,2.40259004099971
S54,simple,2,lejos,1,11,140,0,7,2.03962720399977
S54,simple,2,lejos,1,12,150,1,8,1.76742070700129
S54,simple,2,lejos,1,13,140,0,9,2.79811374699966
S54,simple,2,lejos,1,14,150,1,10,2.79638778200024
S54,simple,2,lejos,1,15,140,0,11,2.38390794500083
S54,simple,2,lejos,1,16,150,1,12,1.91056946500066
S54,simple,3,cerca,1,1,20,0,0,0.795349256999543
S54,simple,3,cerca,1,2,40,0,0,1.03591220499948
S54,simple,3,cerca,1,3,60,0,0,0.0709153829993738
S54,simple,3,cerca,1,4,80,0,0,1.01097725699947
S54,simple,3,cerca,1,5,100,0,0,1.28453410499969
S54,simple,3,cerca,1,6,120,0,0,1.15320301700012
S54,simple,3,cerca,1,7,140,1,1,1.30471685200064
S54,simple,3,cerca,1,8,120,0,2,0.996339225999691
S54,simple,3,cerca,1,9,140,1,3,1.51764414699937
S54,simple,3,cerca,1,10,130,0,4,3.02473571200062
S54,simple,3,cerca,1,11,140,1,5,2.40161499299938
S54,simple,3,cerca,1,12,130,0,6,1.02225665700098
S54,simple,3,cerca,1,13,140,1,7,1.57937034300085
S54,simple,3,cerca,1,14,130,0,8,1.13884695399975
S54,simple,3,cerca,1,15,140,0,0,3.07151746999989
S54,simple,3,cerca,1,16,150,0,0,0.0784438090013282
S54,simple,3,cerca,1,17,160,1,9,0.956420939000964
S54,simple,3,cerca,1,18,150,1,0,0.929012558000977
S54,simple,3,cerca,1,19,140,0,10,2.38797600600083
S54,simple,3,cerca,1,20,150,1,11,1.0609134690003
S54,simple,3,cerca,1,21,140,1,0,1.63519560500026
S54,simple,3,cerca,1,22,130,1,0,1.90937515900077
S54,simple,3,cerca,1,23,120,0,12,0.805561268000019
S54,simple,4,cerca,1,1,20,1,0,0.84852870100076
S54,simple,4,cerca,1,2,20,0,1,1.08416282100006
S54,simple,4,cerca,1,3,40,0,0,1.0187096460013
S54,simple,4,cerca,1,4,60,0,0,0.887728155999866
S54,simple,4,cerca,1,5,80,0,0,0.817795384000419
S54,simple,4,cerca,1,6,100,0,0,1.03920371799904
S54,simple,4,cerca,1,7,120,0,0,2.49186616299994
S54,simple,4,cerca,1,8,140,0,0,1.93393912799911
S54,simple,4,cerca,1,9,160,1,2,1.0502330549989
S54,simple,4,cerca,1,10,140,1,0,3.61602340599893
S54,simple,4,cerca,1,11,130,0,3,1.38097663600092
S54,simple,4,cerca,1,12,140,1,4,0.0611306659993716
S54,simple,4,cerca,1,13,130,0,5,1.1450673319996
S54,simple,4,cerca,1,14,140,0,0,2.25681593499939
S54,simple,4,cerca,1,15,150,1,6,1.4961282080003
S54,simple,4,cerca,1,16,140,1,0,1.98347786900013
S54,simple,4,cerca,1,17,130,0,7,2.72857231400121
S54,simple,4,cerca,1,18,140,1,8,1.01210986900151
S54,simple,4,cerca,1,19,130,0,9,1.71883227099897
S54,simple,4,cerca,1,20,140,1,10,0.701769056999183
S54,simple,4,cerca,1,21,130,0,11,0.80367392900007
S54,simple,4,cerca,1,22,140,1,12,1.06080937200022
S55,simple,1,lejos,1,1,220,1,0,1.01152840400027
S55,simple,1,lejos,1,2,200,1,0,1.31416882399935
S55,simple,1,lejos,1,3,180,1,0,1.07377015200109
S55,simple,1,lejos,1,4,160,0,1,1.01932117300021
S55,simple,1,lejos,1,5,180,0,0,1.02428753799904
S55,simple,1,lejos,1,6,200,0,0,0.689243218999763
S55,simple,1,lejos,1,7,220,1,2,1.64914766099901
S55,simple,1,lejos,1,8,200,1,0,0.600258204001875
S55,simple,1,lejos,1,9,190,1,0,1.20447078000143
S55,simple,1,lejos,1,10,180,1,0,1.27910467600304
S55,simple,1,lejos,1,11,170,1,0,0.663066741002694
S55,simple,1,lejos,1,12,160,0,3,1.20964847199866
S55,simple,1,lejos,1,13,170,1,4,1.00630075300069
S55,simple,1,lejos,1,14,160,1,0,1.68299046500033
S55,simple,1,lejos,1,15,150,1,0,0.850415038999927
S55,simple,1,lejos,1,16,140,0,5,1.14629524100019
S55,simple,1,lejos,1,17,150,0,0,1.23214271799952
S55,simple,1,lejos,1,18,160,0,0,1.52754950800227
S55,simple,1,lejos,1,19,170,0,0,1.22736074800196
S55,simple,1,lejos,1,20,180,1,6,0.751139987998613
S55,simple,1,lejos,1,21,170,1,0,0.945886932000576
S55,simple,1,lejos,1,22,160,1,0,1.12596047099942
S55,simple,1,lejos,1,23,150,0,7,0.948217807002948
S55,simple,1,lejos,1,24,160,1,8,0.930459189999965
S55,simple,1,lejos,1,25,150,0,9,0.871083070000168
S55,simple,1,lejos,1,26,160,0,0,0.91267989699918
S55,simple,1,lejos,1,27,170,1,10,1.49533951999911
S55,simple,1,lejos,1,28,160,1,0,1.27241761700134
S55,simple,1,lejos,1,29,150,0,11,0.94913491799889
S55,simple,1,lejos,1,30,160,1,12,0.801829542000633
S55,simple,2,cerca,1,1,20,0,0,1.19388504900053
S55,simple,2,cerca,1,2,40,0,0,0.975717315999646
S55,simple,2,cerca,1,3,60,0,0,0.943269333001808
S55,simple,2,cerca,1,4,80,0,0,0.649253752999357
S55,simple,2,cerca,1,5,100,1,1,1.27889162399879
S55,simple,2,cerca,1,6,80,0,2,0.692485381998267
S55,simple,2,cerca,1,7,100,0,0,0.91995117499755
S55,simple,2,cerca,1,8,110,0,0,1.10209590600061
S55,simple,2,cerca,1,9,120,0,0,1.09164960500129
S55,simple,2,cerca,1,10,130,1,3,1.44521951099887
S55,simple,2,cerca,1,11,120,0,4,0.761220934997255
S55,simple,2,cerca,1,12,130,0,0,0.996470854999643
S55,simple,2,cerca,1,13,140,0,0,1.11116711800059
S55,simple,2,cerca,1,14,150,1,5,0.955664822002291
S55,simple,2,cerca,1,15,140,0,6,0.992441556998529
S55,simple,2,cerca,1,16,150,0,0,1.25139592099731
S55,simple,2,cerca,1,17,160,1,7,0.902152245998877
S55,simple,2,cerca,1,18,150,0,8,0.770602820000931
S55,simple,2,cerca,1,19,160,1,9,1.2505849659974
S55,simple,2,cerca,1,20,150,0,10,1.25085579300139
S55,simple,2,cerca,1,21,160,0,0,0.85940742800085
S55,simple,2,cerca,1,22,170,1,11,1.10052249100045
S55,simple,2,cerca,1,23,160,0,12,0.622362253001484
S55,simple,3,lejos,1,1,220,1,0,0.981563271998311
S55,simple,3,lejos,1,2,200,1,0,0.91542796900103
S55,simple,3,lejos,1,3,180,0,1,1.31147137500011
S55,simple,3,lejos,1,4,200,0,0,0.968496288998722
S55,simple,3,lejos,1,5,220,1,2,0.787308385999495
S55,simple,3,lejos,1,6,200,1,0,0.654214978003438
S55,simple,3,lejos,1,7,190,0,3,1.29846967200137
S55,simple,3,lejos,1,8,200,1,4,1.39961926199976
S55,simple,3,lejos,1,9,190,0,5,0.687372070999118
S55,simple,3,lejos,1,10,200,0,0,1.11897269100155
S55,simple,3,lejos,1,11,210,1,6,0.75591347199952
S55,simple,3,lejos,1,12,200,0,7,1.92508325100061
S55,simple,3,lejos,1,13,210,1,8,1.34733817099914
S55,simple,3,lejos,1,14,200,1,0,1.041139019002
S55,simple,3,lejos,1,15,190,1,0,1.6743558019989
S55,simple,3,lejos,1,16,180,1,0,1.40697569300028
S55,simple,3,lejos,1,17,170,0,9,0.956651546002831
S55,simple,3,lejos,1,18,180,0,0,0.922881170001347
S55,simple,3,lejos,1,19,190,1,10,1.45434339900021
S55,simple,3,lejos,1,20,180,1,0,1.50182939400111
S55,simple,3,lejos,1,21,170,0,11,1.17892200300048
S55,simple,3,lejos,1,22,180,0,0,1.35652672599826
S55,simple,3,lejos,1,23,190,0,0,0.924375047001377
S55,simple,3,lejos,1,24,200,1,12,0.984826947002148
S55,simple,4,cerca,1,1,20,0,0,0.892834410999058
S55,simple,4,cerca,1,2,40,0,0,1.3783881599993
S55,simple,4,cerca,1,3,60,0,0,0.745830197996838
S55,simple,4,cerca,1,4,80,0,0,1.64548929999728
S55,simple,4,cerca,1,5,100,0,0,1.86527053999816
S55,simple,4,cerca,1,6,120,0,0,0.876126893999754
S55,simple,4,cerca,1,7,140,1,1,1.00948147899908
S55,simple,4,cerca,1,8,120,0,2,0.730825451999408
S55,simple,4,cerca,1,9,140,1,3,0.7542932619981
S55,simple,4,cerca,1,10,130,0,4,1.10897565100095
S55,simple,4,cerca,1,11,140,1,5,1.28198283299935
S55,simple,4,cerca,1,12,130,0,6,1.00682658900041
S55,simple,4,cerca,1,13,140,0,0,1.05992351799796
S55,simple,4,cerca,1,14,150,1,7,1.34556706000149
S55,simple,4,cerca,1,15,140,0,8,1.02475282900195
S55,simple,4,cerca,1,16,150,0,0,0.723345924998284
S55,simple,4,cerca,1,17,160,1,9,1.21111864100021
S55,simple,4,cerca,1,18,150,1,0,1.25038314799895
S55,simple,4,cerca,1,19,140,0,10,0.790369137001107
S55,simple,4,cerca,1,20,150,1,11,1.03647978400113
S55,simple,4,cerca,1,21,140,0,12,0.944824795999011
S56,simple,1,lejos,1,1,220,1,0,0.612686219999887
S56,simple,1,lejos,1,2,200,1,0,0.54488751000099
S56,simple,1,lejos,1,3,180,1,0,0.79009341499841
S56,simple,1,lejos,1,4,160,1,0,1.10915354600002
S56,simple,1,lejos,1,5,140,1,0,1.86630574200171
S56,simple,1,lejos,1,6,120,0,1,0.888162928000384
S56,simple,1,lejos,1,7,140,0,0,0.662043031999929
S56,simple,1,lejos,1,8,160,1,2,0.684146057999897
S56,simple,1,lejos,1,9,140,0,3,1.02417164800136
S56,simple,1,lejos,1,10,150,1,4,0.635147884997423
S56,simple,1,lejos,1,11,140,0,5,1.46038807500008
S56,simple,1,lejos,1,12,150,1,6,0.636108465001598
S56,simple,1,lejos,1,13,140,0,7,0.949218264002411
S56,simple,1,lejos,1,14,150,1,8,0.650096225999732
S56,simple,1,lejos,1,15,140,1,0,1.05009818600229
S56,simple,1,lejos,1,16,130,0,9,0.798609423000016
S56,simple,1,lejos,1,17,140,0,0,0.643186195000453
S56,simple,1,lejos,1,18,150,1,10,0.634442949001823
S56,simple,1,lejos,1,19,140,1,0,1.04282917000091
S56,simple,1,lejos,1,20,130,0,11,0.650735034996615
S56,simple,1,lejos,1,21,140,0,0,0.980796939998982
S56,simple,1,lejos,1,22,150,1,12,0.649549902002036
S56,simple,2,cerca,1,1,20,0,0,0.572420941000019
S56,simple,2,cerca,1,2,40,0,0,0.552207387001545
S56,simple,2,cerca,1,3,60,0,0,0.668144647999725
S56,simple,2,cerca,1,4,80,0,0,0.902599580000242
S56,simple,2,cerca,1,5,100,1,1,0.916217059999326
S56,simple,2,cerca,1,6,80,0,2,0.69377452900153
S56,simple,2,cerca,1,7,100,0,0,1.17682381000122
S56,simple,2,cerca,1,8,110,1,3,0.644050512000831
S56,simple,2,cerca,1,9,100,0,4,1.14022341700183
S56,simple,2,cerca,1,10,110,1,5,1.28488609700071
S56,simple,2,cerca,1,11,100,0,6,0.878499900998577
S56,simple,2,cerca,1,12,110,1,7,0.859512375998747
S56,simple,2,cerca,1,13,100,0,8,0.992578237000998
S56,simple,2,cerca,1,14,110,1,9,0.96918900899982
S56,simple,2,cerca,1,15,100,0,10,0.962889182999788
S56,simple,2,cerca,1,16,110,0,0,1.06394096100121
S56,simple,2,cerca,1,17,120,0,0,0.738180633001321
S56,simple,2,cerca,1,18,130,1,11,0.474514677000116
S56,simple,2,cerca,1,19,120,1,0,0.691633171998546
S56,simple,2,cerca,1,20,110,0,12,0.651207795002847
S56,simple,3,cerca,1,1,20,0,0,0.546933499997976
S56,simple,3,cerca,1,2,40,0,0,0.473816349996923
S56,simple,3,cerca,1,3,60,0,0,0.699489784001344
S56,simple,3,cerca,1,4,80,0,0,1.27852458199777
S56,simple,3,cerca,1,5,100,1,1,0.592059776001406
S56,simple,3,cerca,1,6,80,0,2,0.518175163000706
S56,simple,3,cerca,1,7,100,0,0,0.612650453000242
S56,simple,3,cerca,1,8,110,1,3,0.678884801000095
S56,simple,3,cerca,1,9,100,0,4,1.36274200900152
S56,simple,3,cerca,1,10,110,1,5,1.6327487210001
S56,simple,3,cerca,1,11,100,1,0,1.59939891699833
S56,simple,3,cerca,1,12,90,1,0,0.91880884299826
S56,simple,3,cerca,1,13,80,1,0,0.797477203999733
S56,simple,3,cerca,1,14,70,0,6,1.26534935200107
S56,simple,3,cerca,1,15,80,0,0,0.649091268001939
S56,simple,3,cerca,1,16,90,0,0,0.749948978998873
S56,simple,3,cerca,1,17,100,1,7,1.32426056799886
S56,simple,3,cerca,1,18,90,0,8,0.806272644000273
S56,simple,3,cerca,1,19,100,0,0,0.705417668999871
S56,simple,3,cerca,1,20,110,1,9,0.617701190003572
S56,simple,3,cerca,1,21,100,0,10,0.764704205997987
S56,simple,3,cerca,1,22,110,1,11,0.960723732001497
S56,simple,3,cerca,1,23,100,0,12,0.561800512001355
S56,simple,4,lejos,1,1,220,1,0,0.666547433000233
S56,simple,4,lejos,1,2,200,1,0,0.628606318998209
S56,simple,4,lejos,1,3,180,1,0,0.720486270001857
S56,simple,4,lejos,1,4,160,1,0,0.95802037699832
S56,simple,4,lejos,1,5,140,0,1,0.556493088999559
S56,simple,4,lejos,1,6,160,0,0,1.47593136199794
S56,simple,4,lejos,1,7,180,1,2,0.463899761001812
S56,simple,4,lejos,1,8,160,1,0,1.09916717300075
S56,simple,4,lejos,1,9,150,0,3,1.12448446100097
S56,simple,4,lejos,1,10,160,1,4,0.567251796001074
S56,simple,4,lejos,1,11,150,1,0,1.26900473099886
S56,simple,4,lejos,1,12,140,0,5,0.740170217002742
S56,simple,4,lejos,1,13,150,1,6,0.630460374999529
S56,simple,4,lejos,1,14,140,0,7,0.724932086002809
S56,simple,4,lejos,1,15,150,1,8,1.40407281800071
S56,simple,4,lejos,1,16,140,1,0,0.700810794001882
S56,simple,4,lejos,1,17,130,1,0,0.696780325997679
S56,simple,4,lejos,1,18,120,0,9,0.885942574001092
S56,simple,4,lejos,1,19,130,1,10,1.24903202999849
S56,simple,4,lejos,1,20,120,0,11,0.703955328997836
S56,simple,4,lejos,1,21,130,1,12,0.741768367002805
S57,simple,1,lejos,1,1,220,1,0,1.18617186499978
S57,simple,1,lejos,1,2,200,1,0,1.17227792399717
S57,simple,1,lejos,1,3,180,1,0,1.20645773399883
S57,simple,1,lejos,1,4,160,1,0,1.2536750649997
S57,simple,1,lejos,1,5,140,1,0,1.11378419500033
S57,simple,1,lejos,1,6,120,0,1,1.85022019299868
S57,simple,1,lejos,1,7,140,0,0,2.10626356899957
S57,simple,1,lejos,1,8,160,1,2,1.02207889199781
S57,simple,1,lejos,1,9,140,1,0,0.931268132000696
S57,simple,1,lejos,1,10,130,1,0,1.29157205299998
S57,simple,1,lejos,1,11,120,0,3,1.17728171700219
S57,simple,1,lejos,1,12,130,1,4,0.950452889999724
S57,simple,1,lejos,1,13,120,0,5,1.03790428900174
S57,simple,1,lejos,1,14,130,1,6,1.26049991699983
S57,simple,1,lejos,1,15,120,0,7,0.97982162399785
S57,simple,1,lejos,1,16,130,1,8,1.03854610599956
S57,simple,1,lejos,1,17,120,1,0,1.49327752000318
S57,simple,1,lejos,1,18,110,0,9,0.959733002997382
S57,simple,1,lejos,1,19,120,0,0,1.57509906100313
S57,simple,1,lejos,1,20,130,1,10,0.94567177099816
S57,simple,1,lejos,1,21,120,1,0,1.23456254099801
S57,simple,1,lejos,1,22,110,0,11,0.993340712997451
S57,simple,1,lejos,1,23,120,0,0,1.24899251800161
S57,simple,1,lejos,1,24,130,1,12,0.913635782999336
S57,simple,2,cerca,1,1,20,0,0,0.920637958999578
S57,simple,2,cerca,1,2,40,0,0,0.820427829999971
S57,simple,2,cerca,1,3,60,0,0,0.984048875998269
S57,simple,2,cerca,1,4,80,0,0,1.0677162289976
S57,simple,2,cerca,1,5,100,1,1,1.13181589699889
S57,simple,2,cerca,1,6,80,0,2,1.30172210100136
S57,simple,2,cerca,1,7,100,0,0,1.41051798899935
S57,simple,2,cerca,1,8,110,1,3,0.923189143002674
S57,simple,2,cerca,1,9,100,1,0,1.57310306399813
S57,simple,2,cerca,1,10,90,0,4,1.11536851900019
S57,simple,2,cerca,1,11,100,1,5,1.6681884239988
S57,simple,2,cerca,1,12,90,0,6,1.0329199480002
S57,simple,2,cerca,1,13,100,0,0,0.964527813001041
S57,simple,2,cerca,1,14,110,0,0,1.35905800000182
S57,simple,2,cerca,1,15,120,0,0,1.6581533690005
S57,simple,2,cerca,1,16,130,1,7,0.88114068700088
S57,simple,2,cerca,1,17,120,1,0,1.31419232600092
S57,simple,2,cerca,1,18,110,1,0,1.30841311200129
S57,simple,2,cerca,1,19,100,0,8,1.5219191239994
S57,simple,2,cerca,1,20,110,0,0,1.0550152600008
S57,simple,2,cerca,1,21,120,1,9,1.11148013999991
S57,simple,2,cerca,1,22,110,1,0,1.43783572699977
S57,simple,2,cerca,1,23,100,0,10,0.983803918999911
S57,simple,2,cerca,1,24,110,0,0,1.08501384400006
S57,simple,2,cerca,1,25,120,0,0,1.35709623300136
S57,simple,2,cerca,1,26,130,1,11,1.46865894899747
S57,simple,2,cerca,1,27,120,1,0,1.60218277700187
S57,simple,2,cerca,1,28,110,1,0,1.41726458799894
S57,simple,2,cerca,1,29,100,1,0,1.37596858499819
S57,simple,2,cerca,1,30,90,0,12,1.27688771400062
S57,simple,3,cerca,1,1,20,0,0,0.947611250998307
S57,simple,3,cerca,1,2,40,0,0,0.96589713999856
S57,simple,3,cerca,1,3,60,0,0,0.962621236001723
S57,simple,3,cerca,1,4,80,0,0,1.11466248500074
S57,simple,3,cerca,1,5,100,1,1,1.02805514299689
S57,simple,3,cerca,1,6,80,0,2,1.19449204200282
S57,simple,3,cerca,1,7,100,1,3,0.868525337999017
S57,simple,3,cerca,1,8,90,1,0,1.04942508700333
S57,simple,3,cerca,1,9,80,0,4,1.12464016100057
S57,simple,3,cerca,1,10,90,0,0,1.20652657200117
S57,simple,3,cerca,1,11,100,0,0,1.47540879799999
S57,simple,3,cerca,1,12,110,1,5,0.930548427997564
S57,simple,3,cerca,1,13,100,1,0,1.32125024999914
S57,simple,3,cerca,1,14,90,1,0,1.35117031799746
S57,simple,3,cerca,1,15,80,0,6,1.0718055819998
S57,simple,3,cerca,1,16,90,0,0,1.177376697
S57,simple,3,cerca,1,17,100,1,7,1.80182369500108
S57,simple,3,cerca,1,18,90,1,0,1.42962356700082
S57,simple,3,cerca,1,19,80,0,8,1.68734643900098
S57,simple,3,cerca,1,20,90,0,0,0.997297986999911
S57,simple,3,cerca,1,21,100,0,0,1.56253753300189
S57,simple,3,cerca,1,22,110,1,9,1.02175657599946
S57,simple,3,cerca,1,23,100,0,10,1.25515885799905
S57,simple,3,cerca,1,24,110,1,11,0.77706285900058
S57,simple,3,cerca,1,25,100,1,0,1.00037258700104
S57,simple,3,cerca,1,26,90,0,12,1.02659991400287
S57,simple,4,lejos,1,1,220,1,0,0.945335880998755
S57,simple,4,lejos,1,2,200,1,0,0.902667409998685
S57,simple,4,lejos,1,3,180,1,0,0.925804607002647
S57,simple,4,lejos,1,4,160,1,0,1.10407872100041
S57,simple,4,lejos,1,5,140,1,0,1.05795357299939
S57,simple,4,lejos,1,6,120,1,0,1.36436167599823
S57,simple,4,lejos,1,7,100,0,1,1.11423378299878
S57,simple,4,lejos,1,8,120,1,2,1.36536099299701
S57,simple,4,lejos,1,9,100,0,3,0.972180000000662
S57,simple,4,lejos,1,10,110,0,0,1.16466167900217
S57,simple,4,lejos,1,11,120,0,0,1.13077431999773
S57,simple,4,lejos,1,12,130,1,4,0.944723592998344
S57,simple,4,lejos,1,13,120,1,0,1.09269739799856
S57,simple,4,lejos,1,14,110,1,0,1.22606608099886
S57,simple,4,lejos,1,15,100,0,5,1.3832865910008
S57,simple,4,lejos,1,16,110,0,0,1.37522496200108
S57,simple,4,lejos,1,17,120,1,6,1.18377214800057
S57,simple,4,lejos,1,18,110,0,7,1.44984683200164
S57,simple,4,lejos,1,19,120,1,8,1.23348695000095
S57,simple,4,lejos,1,20,110,1,0,1.16901360500196
S57,simple,4,lejos,1,21,100,0,9,0.983832883001014
S57,simple,4,lejos,1,22,110,1,10,1.21123065899883
S57,simple,4,lejos,1,23,100,1,0,1.67693331300325
S57,simple,4,lejos,1,24,90,0,11,1.24897637899994
S57,simple,4,lejos,1,25,100,1,12,1.24885993600037
S58,simple,1,lejos,1,1,220,1,0,0.737160897999274
S58,simple,1,lejos,1,2,200,1,0,0.740886858999147
S58,simple,1,lejos,1,3,180,1,0,0.609942095001315
S58,simple,1,lejos,1,4,160,1,0,1.50562279899896
S58,simple,1,lejos,1,5,140,0,1,0.803933822000545
S58,simple,1,lejos,1,6,160,1,2,0.64169848900201
S58,simple,1,lejos,1,7,140,0,3,0.667127486998652
S58,simple,1,lejos,1,8,150,0,0,1.62690285400095
S58,simple,1,lejos,1,9,160,0,0,0.796181697001884
S58,simple,1,lejos,1,10,170,1,4,1.01000229499914
S58,simple,1,lejos,1,11,160,1,0,0.495935844999622
S58,simple,1,lejos,1,12,150,1,0,0.524898261999624
S58,simple,1,lejos,1,13,140,1,0,0.399629133000417
S58,simple,1,lejos,1,14,130,0,5,0.732624546999432
S58,simple,1,lejos,1,15,140,0,0,0.643253029000334
S58,simple,1,lejos,1,16,150,1,6,1.16699026400238
S58,simple,1,lejos,1,17,140,1,0,0.903871620001155
S58,simple,1,lejos,1,18,130,1,0,1.09373882300133
S58,simple,1,lejos,1,19,120,0,7,1.32654089399875
S58,simple,1,lejos,1,20,130,1,8,1.21647752599893
S58,simple,1,lejos,1,21,120,0,9,0.631270410001889
S58,simple,1,lejos,1,22,130,1,10,0.923697091999202
S58,simple,1,lejos,1,23,120,1,0,1.65026794799996
S58,simple,1,lejos,1,24,110,0,11,2.085747678997
S58,simple,1,lejos,1,25,120,0,0,2.29366060699977
S58,simple,1,lejos,1,26,130,1,12,0.582851696999569
S58,simple,2,cerca,1,1,20,0,0,0.643543307000073
S58,simple,2,cerca,1,2,40,0,0,0.659055586002069
S58,simple,2,cerca,1,3,60,0,0,0.535187190002034
S58,simple,2,cerca,1,4,80,0,0,0.597899074000452
S58,simple,2,cerca,1,5,100,0,0,0.980996998001501
S58,simple,2,cerca,1,6,120,1,1,0.455118583002331
S58,simple,2,cerca,1,7,100,1,0,0.614335157999449
S58,simple,2,cerca,1,8,80,0,2,0.553773730996909
S58,simple,2,cerca,1,9,100,0,0,0.729393115001585
S58,simple,2,cerca,1,10,110,1,3,3.14761935500064
S58,simple,2,cerca,1,11,100,0,4,1.00201582900263
S58,simple,2,cerca,1,12,110,0,0,3.44319325999822
S58,simple,2,cerca,1,13,120,0,0,0.909851406999223
S58,simple,2,cerca,1,14,130,1,5,1.06688501299868
S58,simple,2,cerca,1,15,120,0,6,0.972185156999331
S58,simple,2,cerca,1,16,130,1,7,0.665658655001607
S58,simple,2,cerca,1,17,120,0,8,0.795811738000339
S58,simple,2,cerca,1,18,130,0,0,1.92802509299872
S58,simple,2,cerca,1,19,140,0,0,1.14605897400179
S58,simple,2,cerca,1,20,150,1,9,0.488231262999761
S58,simple,2,cerca,1,21,140,1,0,1.33761864700136
S58,simple,2,cerca,1,22,130,0,10,1.46984907300066
S58,simple,2,cerca,1,23,140,0,0,0.783574671000679
S58,simple,2,cerca,1,24,150,1,11,0.836690709998948
S58,simple,2,cerca,1,25,140,1,0,0.620385920999979
S58,simple,2,cerca,1,26,130,1,0,1.83518684799856
S58,simple,2,cerca,1,27,120,0,12,1.14003442899775
S58,simple,3,lejos,1,1,220,1,0,0.713053075000062
S58,simple,3,lejos,1,2,200,1,0,0.591638980997232
S58,simple,3,lejos,1,3,180,1,0,1.03380577400094
S58,simple,3,lejos,1,4,160,1,0,1.13708276699981
S58,simple,3,lejos,1,5,140,1,0,0.614013357000658
S58,simple,3,lejos,1,6,120,0,1,0.575430062999658
S58,simple,3,lejos,1,7,140,0,0,0.584004025997274
S58,simple,3,lejos,1,8,160,0,0,0.71635935300219
S58,simple,3,lejos,1,9,180,1,2,1.0303593130011
S58,simple,3,lejos,1,10,160,1,0,0.818845392001094
S58,simple,3,lejos,1,11,150,1,0,0.791527124998538
S58,simple,3,lejos,1,12,140,1,0,4.00498189300197
S58,simple,3,lejos,1,13,130,1,0,0.889234873997339
S58,simple,3,lejos,1,14,120,0,3,0.584747304998018
S58,simple,3,lejos,1,15,130,0,0,0.627605252000649
S58,simple,3,lejos,1,16,140,0,0,0.665896241000155
S58,simple,3,lejos,1,17,150,0,0,0.539705982999294
S58,simple,3,lejos,1,18,160,1,4,0.602291368999431
S58,simple,3,lejos,1,19,150,1,0,0.824193827000272
S58,simple,3,lejos,1,20,140,1,0,0.556918148999102
S58,simple,3,lejos,1,21,130,1,0,0.492522444001224
S58,simple,3,lejos,1,22,120,1,0,0.638128424001479
S58,simple,3,lejos,1,23,110,0,5,1.2997013460008
S58,simple,3,lejos,1,24,120,1,6,0.593677303997538
S58,simple,3,lejos,1,25,110,1,0,1.57466126700092
S58,simple,3,lejos,1,26,100,0,7,0.60108596200007
S58,simple,3,lejos,1,27,110,0,0,0.520748814997205
S58,simple,3,lejos,1,28,120,1,8,0.894435351001448
S58,simple,3,lejos,1,29,110,1,0,1.47296440699938
S58,simple,3,lejos,1,30,100,0,9,0.718396948999725
S58,simple,3,lejos,1,31,110,1,10,1.04225302299892
S58,simple,3,lejos,1,32,100,1,0,2.50471666199883
S58,simple,3,lejos,1,33,90,0,11,0.658066391999455
S58,simple,3,lejos,1,34,100,0,0,0.754998986998544
S58,simple,3,lejos,1,35,110,1,12,0.555041073999746
S58,simple,4,cerca,1,1,20,0,0,0.565846194000187
S58,simple,4,cerca,1,2,40,0,0,0.432840691999445
S58,simple,4,cerca,1,3,60,0,0,0.485726931001409
S58,simple,4,cerca,1,4,80,0,0,0.701574351998715
S58,simple,4,cerca,1,5,100,0,0,1.07506017900232
S58,simple,4,cerca,1,6,120,1,1,0.500090371999249
S58,simple,4,cerca,1,7,100,1,0,0.575203551001323
S58,simple,4,cerca,1,8,80,0,2,1.0611760110005
S58,simple,4,cerca,1,9,100,1,3,2.01435663599841
S58,simple,4,cerca,1,10,90,0,4,0.994990570998198
S58,simple,4,cerca,1,11,100,1,5,1.78275668499919
S58,simple,4,cerca,1,12,90,0,6,0.960291708001023
S58,simple,4,cerca,1,13,100,0,0,0.935685006003041
S58,simple,4,cerca,1,14,110,0,0,1.17243482399863
S58,simple,4,cerca,1,15,120,0,0,0.941020505000779
S58,simple,4,cerca,1,16,130,1,7,0.524027233001107
S58,simple,4,cerca,1,17,120,0,8,0.640300682000088
S58,simple,4,cerca,1,18,130,1,9,0.674250688000029
S58,simple,4,cerca,1,19,120,1,0,0.862313139001344
S58,simple,4,cerca,1,20,110,0,10,0.620150961000036
S58,simple,4,cerca,1,21,120,0,0,1.24644049400013
S58,simple,4,cerca,1,22,130,0,0,1.80240233999939
S58,simple,4,cerca,1,23,140,1,11,0.632225697998365
S58,simple,4,cerca,1,24,130,1,0,1.13098173299659
S58,simple,4,cerca,1,25,120,0,12,0.782138325001142
S59,simple,1,lejos,1,1,220,1,0,1.55167859799985
S59,simple,1,lejos,1,2,200,1,0,1.56634543999826
S59,simple,1,lejos,1,3,180,1,0,1.62263903699932
S59,simple,1,lejos,1,4,160,0,1,1.59986613100045
S59,simple,1,lejos,1,5,180,1,2,1.57224062499881
S59,simple,1,lejos,1,6,160,0,3,1.59811321600137
S59,simple,1,lejos,1,7,170,0,0,1.45911215199885
S59,simple,1,lejos,1,8,180,1,4,2.22535293599503
S59,simple,1,lejos,1,9,170,0,5,1.38099039199733
S59,simple,1,lejos,1,10,180,0,0,1.18047467500583
S59,simple,1,lejos,1,11,190,1,6,2.0717363099975
S59,simple,1,lejos,1,12,180,0,7,1.6203845400014
S59,simple,1,lejos,1,13,190,0,0,1.47793529099727
S59,simple,1,lejos,1,14,200,1,8,2.00653074400179
S59,simple,1,lejos,1,15,190,0,9,1.43978734999837
S59,simple,1,lejos,1,16,200,1,10,1.71085992299777
S59,simple,1,lejos,1,17,190,0,11,1.32176338700083
S59,simple,1,lejos,1,18,200,0,0,1.38462550300028
S59,simple,1,lejos,1,19,210,1,12,1.41907607099711
S59,simple,2,lejos,1,1,220,1,0,1.76163304199872
S59,simple,2,lejos,1,2,200,1,0,1.80779596500361
S59,simple,2,lejos,1,3,180,0,1,1.3397423139977
S59,simple,2,lejos,1,4,200,0,0,1.49319952099904
S59,simple,2,lejos,1,5,220,1,2,1.97380137599976
S59,simple,2,lejos,1,6,200,1,0,1.61925012400025
S59,simple,2,lejos,1,7,190,0,3,1.1248888629998
S59,simple,2,lejos,1,8,200,0,0,1.38218270499783
S59,simple,2,lejos,1,9,210,1,4,1.51790530700237
S59,simple,2,lejos,1,10,200,1,0,0.950191648997134
S59,simple,2,lejos,1,11,190,0,5,1.42580789799831
S59,simple,2,lejos,1,12,200,0,0,1.63475307199406
S59,simple,2,lejos,1,13,210,0,0,1.48243684400222
S59,simple,2,lejos,1,14,220,1,6,1.63237813900196
S59,simple,2,lejos,1,15,210,0,7,1.66449129200191
S59,simple,2,lejos,1,16,220,0,0,1.46235090499977
S59,simple,2,lejos,1,17,220,0,0,0.9272157910018
S59,simple,2,lejos,1,18,220,0,0,1.25733762500022
S59,simple,2,lejos,1,19,220,1,8,1.22391842999787
S59,simple,2,lejos,1,20,210,0,9,1.67739944300411
S59,simple,2,lejos,1,21,220,1,10,1.93805164300284
S59,simple,2,lejos,1,22,210,0,11,1.1738459489934
S59,simple,2,lejos,1,23,220,1,12,1.78985321200162
S59,simple,3,cerca,1,1,20,0,0,1.18692170999566
S59,simple,3,cerca,1,2,40,0,0,1.41221425600088
S59,simple,3,cerca,1,3,60,0,0,1.36665317599545
S59,simple,3,cerca,1,4,80,0,0,1.55701614799909
S59,simple,3,cerca,1,5,100,1,1,1.76808451900433
S59,simple,3,cerca,1,6,80,0,2,1.47861656500027
S59,simple,3,cerca,1,7,100,1,3,1.38240699499875
S59,simple,3,cerca,1,8,90,0,4,1.03417539899965
S59,simple,3,cerca,1,9,100,1,5,1.63803362300678
S59,simple,3,cerca,1,10,90,0,6,0.943030663001991
S59,simple,3,cerca,1,11,100,1,7,1.26622491000307
S59,simple,3,cerca,1,12,90,0,8,1.19298426400201
S59,simple,3,cerca,1,13,100,1,9,1.46230973999627
S59,simple,3,cerca,1,14,90,0,10,1.10999385899777
S59,simple,3,cerca,1,15,100,1,11,1.62503460899461
S59,simple,3,cerca,1,16,90,0,12,1.04190585300239
S59,simple,4,cerca,1,1,20,0,0,0.903129162004916
S59,simple,4,cerca,1,2,40,0,0,0.937680921997526
S59,simple,4,cerca,1,3,60,0,0,0.977306695996958
S59,simple,4,cerca,1,4,80,0,0,1.03923881099763
S59,simple,4,cerca,1,5,100,0,0,1.85326296899439
S59,simple,4,cerca,1,6,120,1,1,1.14717169099458
S59,simple,4,cerca,1,7,100,0,2,1.19734281599813
S59,simple,4,cerca,1,8,120,1,3,1.08212839699991
S59,simple,4,cerca,1,9,110,0,4,1.11554031800188
S59,simple,4,cerca,1,10,120,1,5,0.926456413006235
S59,simple,4,cerca,1,11,110,1,0,1.2469492060045
S59,simple,4,cerca,1,12,100,0,6,1.32183657199494
S59,simple,4,cerca,1,13,110,0,0,1.16635844999837
S59,simple,4,cerca,1,14,120,1,7,1.0887954419959
S59,simple,4,cerca,1,15,110,0,8,1.19835145300021
S59,simple,4,cerca,1,16,120,1,9,1.04996927799948
S59,simple,4,cerca,1,17,110,0,10,0.889396531005332
S59,simple,4,cerca,1,18,120,1,11,1.48711217499658
S59,simple,4,cerca,1,19,110,0,12,1.93803315900004
S60,simple,1,cerca,1,1,20,0,0,0.966504604000079
S60,simple,1,cerca,1,2,40,0,0,0.678772544000026
S60,simple,1,cerca,1,3,60,0,0,0.831373166999924
S60,simple,1,cerca,1,4,80,0,0,0.983490843000027
S60,simple,1,cerca,1,5,100,0,0,1.16252254200003
S60,simple,1,cerca,1,6,120,0,0,1.19826283400005
S60,simple,1,cerca,1,7,140,1,1,0.901712340000017
S60,simple,1,cerca,1,8,120,1,0,1.500858634
S60,simple,1,cerca,1,9,100,0,2,1.12040230299999
S60,simple,1,cerca,1,10,120,1,3,1.17411320000008
S60,simple,1,cerca,1,11,110,1,0,0.893307369000013
S60,simple,1,cerca,1,12,100,1,0,7.85139077600002
S60,simple,1,cerca,1,13,90,0,4,0.845909393999932
S60,simple,1,cerca,1,14,100,0,0,0.847653529000013
S60,simple,1,cerca,1,15,110,0,0,1.05105187599997
S60,simple,1,cerca,1,16,120,1,5,1.21400366900002
S60,simple,1,cerca,1,17,110,1,0,1.41659442800005
S60,simple,1,cerca,1,18,100,0,6,1.50884838899992
S60,simple,1,cerca,1,19,110,0,0,1.0411052369999
S60,simple,1,cerca,1,20,120,1,7,1.19947455800002
S60,simple,1,cerca,1,21,110,1,0,0.933963283000026
S60,simple,1,cerca,1,22,100,0,8,1.44335068999999
S60,simple,1,cerca,1,23,110,1,9,1.53144545600003
S60,simple,1,cerca,1,24,100,1,0,0.8672940350001
S60,simple,1,cerca,1,25,90,0,10,0.724716429999944
S60,simple,1,cerca,1,26,100,0,0,1.22900859600009
S60,simple,1,cerca,1,27,110,0,0,0.896559890000162
S60,simple,1,cerca,1,28,120,0,0,0.921238482000035
S60,simple,1,cerca,1,29,130,1,11,0.691482879999967
S60,simple,1,cerca,1,30,120,1,0,0.810699169999907
S60,simple,1,cerca,1,31,110,1,0,0.715880739999875
S60,simple,1,cerca,1,32,100,1,0,0.478069404000053
S60,simple,1,cerca,1,33,90,0,12,0.730638964000036
S60,simple,2,lejos,1,1,220,1,0,1.05083775899993
S60,simple,2,lejos,1,2,200,1,0,0.578557554999861
S60,simple,2,lejos,1,3,180,1,0,0.575591985000074
S60,simple,2,lejos,1,4,160,1,0,0.509281535999889
S60,simple,2,lejos,1,5,140,0,1,1.12314440299997
S60,simple,2,lejos,1,6,160,1,2,0.939334504000044
S60,simple,2,lejos,1,7,140,1,0,0.97994676899998
S60,simple,2,lejos,1,8,130,0,3,0.667473723000057
S60,simple,2,lejos,1,9,140,0,0,0.588914770999963
S60,simple,2,lejos,1,10,150,0,0,0.867792528000109
S60,simple,2,lejos,1,11,160,1,4,0.771502865000002
S60,simple,2,lejos,1,12,150,1,0,0.542310405999842
S60,simple,2,lejos,1,13,140,0,5,0.868462972000088
S60,simple,2,lejos,1,14,150,1,6,0.844156670000075
S60,simple,2,lejos,1,15,140,0,7,0.652716702000134
S60,simple,2,lejos,1,16,150,0,0,0.685044768000125
S60,simple,2,lejos,1,17,160,1,8,0.613939414000015
S60,simple,2,lejos,1,18,150,1,0,0.828415044999929
S60,simple,2,lejos,1,19,140,0,9,0.615850260000116
S60,simple,2,lejos,1,20,150,0,0,1.10262525600001
S60,simple,2,lejos,1,21,160,1,10,0.940843525999981
S60,simple,2,lejos,1,22,150,0,11,0.961895817000141
S60,simple,2,lejos,1,23,160,1,12,0.989506616000199
S60,simple,3,lejos,1,1,220,1,0,0.690982920000124
S60,simple,3,lejos,1,2,200,1,0,0.830736036999951
S60,simple,3,lejos,1,3,180,1,0,0.649218313999882
S60,simple,3,lejos,1,4,160,1,0,0.877575209000042
S60,simple,3,lejos,1,5,140,1,0,0.904324749000125
S60,simple,3,lejos,1,6,120,0,1,0.532001764000142
S60,simple,3,lejos,1,7,140,0,0,0.613247385000022
S60,simple,3,lejos,1,8,160,0,0,0.992580165999925
S60,simple,3,lejos,1,9,180,1,2,0.521807441000192
S60,simple,3,lejos,1,10,160,1,0,0.494957002000092
S60,simple,3,lejos,1,11,150,1,0,0.988451493999946
S60,simple,3,lejos,1,12,140,0,3,0.893772728000158
S60,simple,3,lejos,1,13,150,0,0,1.07411418400011
S60,simple,3,lejos,1,14,160,1,4,0.739641922999908
S60,simple,3,lejos,1,15,150,1,0,0.81617464299984
S60,simple,3,lejos,1,16,140,0,5,0.695725691999996
S60,simple,3,lejos,1,17,150,0,0,0.983179500999995
S60,simple,3,lejos,1,18,160,0,0,0.901603796000018
S60,simple,3,lejos,1,19,170,1,6,0.434969180000053
S60,simple,3,lejos,1,20,160,0,7,0.923139203999881
S60,simple,3,lejos,1,21,170,1,8,0.674043903999973
S60,simple,3,lejos,1,22,160,1,0,0.750302497000121
S60,simple,3,lejos,1,23,150,0,9,0.516755114000034
S60,simple,3,lejos,1,24,160,1,10,0.581610807999823
S60,simple,3,lejos,1,25,150,0,11,0.584135758000002
S60,simple,3,lejos,1,26,160,1,12,0.58405279700014
S60,simple,4,cerca,1,1,20,0,0,0.714403671999889
S60,simple,4,cerca,1,2,40,0,0,0.374415244999909
S60,simple,4,cerca,1,3,60,0,0,0.640563933000067
S60,simple,4,cerca,1,4,80,0,0,0.347656442000016
S60,simple,4,cerca,1,5,100,0,0,0.607827701999895
S60,simple,4,cerca,1,6,120,0,0,0.671785790000058
S60,simple,4,cerca,1,7,140,0,0,1.30276045799997
S60,simple,4,cerca,1,8,160,1,1,0.539095289999977
S60,simple,4,cerca,1,9,140,0,2,0.930057154999986
S60,simple,4,cerca,1,10,160,1,3,0.430849857000112
S60,simple,4,cerca,1,11,150,1,0,0.668001577000041
S60,simple,4,cerca,1,12,140,0,4,0.95555268499993
S60,simple,4,cerca,1,13,150,1,5,0.537701362000007
S60,simple,4,cerca,1,14,140,1,0,0.809235345999923
S60,simple,4,cerca,1,15,130,0,6,0.633821936999993
S60,simple,4,cerca,1,16,140,1,7,0.686577916000033
S60,simple,4,cerca,1,17,130,0,8,0.437343031999944
S60,simple,4,cerca,1,18,140,0,0,0.491838779000091
S60,simple,4,cerca,1,19,150,0,0,0.500082168000063
S60,simple,4,cerca,1,20,160,1,9,0.54216448599982
S60,simple,4,cerca,1,21,150,1,0,0.898716358000001
S60,simple,4,cerca,1,22,140,1,0,0.424872577999849
S60,simple,4,cerca,1,23,130,0,10,0.413215813000079
S60,simple,4,cerca,1,24,140,0,0,0.718971925000005
S60,simple,4,cerca,1,25,150,0,0,0.949965094999925
S60,simple,4,cerca,1,26,160,1,11,0.650308589999895
S60,simple,4,cerca,1,27,150,1,0,0.509840548000057
S60,simple,4,cerca,1,28,140,0,12,0.581154513000001
S62,simple,1,cerca,1,1,20,0,0,0.780561696999939
S62,simple,1,cerca,1,2,40,0,0,0.951903160000256
S62,simple,1,cerca,1,3,60,0,0,0.993639670999983
S62,simple,1,cerca,1,4,80,0,0,1.36346029800006
S62,simple,1,cerca,1,5,100,1,1,0.805379854999956
S62,simple,1,cerca,1,6,80,0,2,1.54628830399997
S62,simple,1,cerca,1,7,100,0,0,1.34050048900008
S62,simple,1,cerca,1,8,110,1,3,0.772882409999511
S62,simple,1,cerca,1,9,100,1,0,1.44151976100056
S62,simple,1,cerca,1,10,90,0,4,1.999841973
S62,simple,1,cerca,1,11,100,1,5,1.50775555600012
S62,simple,1,cerca,1,12,90,0,6,1.2463274339998
S62,simple,1,cerca,1,13,100,1,7,1.17558724399987
S62,simple,1,cerca,1,14,90,0,8,0.78926536400013
S62,simple,1,cerca,1,15,100,0,0,1.44509877000019
S62,simple,1,cerca,1,16,110,1,9,0.68801485899985
S62,simple,1,cerca,1,17,100,1,0,1.96638794400042
S62,simple,1,cerca,1,18,90,0,10,1.11461412399967
S62,simple,1,cerca,1,19,100,1,11,1.51567144699948
S62,simple,1,cerca,1,20,90,0,12,1.70817675000035
S61,simple,2,lejos,1,1,220,1,0,1.12876742900062
S61,simple,2,lejos,1,2,200,1,0,1.0347960729996
S61,simple,2,lejos,1,3,180,1,0,0.951855967000483
S61,simple,2,lejos,1,4,160,1,0,1.26636969100036
S61,simple,2,lejos,1,5,140,1,0,1.46886534700025
S61,simple,2,lejos,1,6,120,1,0,1.84947280100005
S61,simple,2,lejos,1,7,100,0,1,0.624511877999794
S61,simple,2,lejos,1,8,120,1,2,1.59412238799996
S61,simple,2,lejos,1,9,100,0,3,0.829148709000037
S61,simple,2,lejos,1,10,110,0,0,0.792636404000405
S61,simple,2,lejos,1,11,120,1,4,1.70526553199943
S61,simple,2,lejos,1,12,110,0,5,0.929279470999973
S61,simple,2,lejos,1,13,120,1,6,0.926690078999854
S61,simple,2,lejos,1,14,110,1,0,2.30177464999997
S61,simple,2,lejos,1,15,100,0,7,1.11718580300021
S61,simple,2,lejos,1,16,110,0,0,1.18157975300073
S61,simple,2,lejos,1,17,120,1,8,1.13755671299987
S61,simple,2,lejos,1,18,110,0,9,1.04777799899966
S61,simple,2,lejos,1,19,120,1,10,1.07527825000034
S61,simple,2,lejos,1,20,110,1,0,1.2947815739999
S61,simple,2,lejos,1,21,100,0,11,1.13640914999996
S61,simple,2,lejos,1,22,110,0,0,0.856517119999808
S61,simple,2,lejos,1,23,120,1,12,1.13458614299998
S61,simple,3,cerca,1,1,20,0,0,0.675890126000013
S61,simple,3,cerca,1,2,40,0,0,0.619208923999395
S61,simple,3,cerca,1,3,60,0,0,0.751103032000174
S61,simple,3,cerca,1,4,80,0,0,1.22640502899958
S61,simple,3,cerca,1,5,100,1,1,0.971695211999759
S61,simple,3,cerca,1,6,80,0,2,1.15727999199953
S61,simple,3,cerca,1,7,100,1,3,1.06659856199985
S61,simple,3,cerca,1,8,90,1,0,2.06201901999975
S61,simple,3,cerca,1,9,80,0,4,1.95486451900069
S61,simple,3,cerca,1,10,90,0,0,1.3647817330002
S61,simple,3,cerca,1,11,100,1,5,1.34681763299977
S61,simple,3,cerca,1,12,90,0,6,1.16720044800059
S61,simple,3,cerca,1,13,100,1,7,0.805087566000111
S61,simple,3,cerca,1,14,90,0,8,1.10101050699996
S61,simple,3,cerca,1,15,100,1,9,0.980590681999274
S61,simple,3,cerca,1,16,90,0,10,1.58989133000068
S61,simple,3,cerca,1,17,100,1,11,1.18913779299965
S61,simple,3,cerca,1,18,90,0,12,1.56172379300006
S61,simple,4,lejos,1,1,220,1,0,0.784141523000471
S61,simple,4,lejos,1,2,200,1,0,0.813219001999641
S61,simple,4,lejos,1,3,180,1,0,0.963259593999283
S61,simple,4,lejos,1,4,160,1,0,0.963322137999967
S61,simple,4,lejos,1,5,140,1,0,1.27596789200015
S61,simple,4,lejos,1,6,120,0,1,2.1847965070001
S61,simple,4,lejos,1,7,140,1,2,1.56887760300015
S61,simple,4,lejos,1,8,120,1,0,1.61888301700037
S61,simple,4,lejos,1,9,110,0,3,1.38837511600013
S61,simple,4,lejos,1,10,120,1,4,1.52353212299931
S61,simple,4,lejos,1,11,110,1,0,1.79291051499968
S61,simple,4,lejos,1,12,100,0,5,1.92505521300063
S61,simple,4,lejos,1,13,110,1,6,0.911860952000097
S61,simple,4,lejos,1,14,100,1,0,1.87665115299933
S61,simple,4,lejos,1,15,90,0,7,1.19099965500027
S61,simple,4,lejos,1,16,100,0,0,1.41321570999935
S61,simple,4,lejos,1,17,110,1,8,1.93065658700016
S61,simple,4,lejos,1,18,100,0,9,1.05236635999972
S61,simple,4,lejos,1,19,110,0,0,1.9512595189999
S61,simple,4,lejos,1,20,120,1,10,0.849983463999706
S61,simple,4,lejos,1,21,110,1,0,1.34373192900057
S61,simple,4,lejos,1,22,100,1,0,1.954563667
S61,simple,4,lejos,1,23,90,0,11,0.881341656999211
S61,simple,4,lejos,1,24,100,0,0,1.07405129600011
S61,simple,4,lejos,1,25,110,1,12,1.11371103700003
S62,simple,1,cerca,1,1,20,0,0,0.710592509999969
S62,simple,1,cerca,1,2,40,0,0,0.630132772000252
S62,simple,1,cerca,1,3,60,0,0,0.765637201000118
S62,simple,1,cerca,1,4,80,0,0,0.714217988999735
S62,simple,1,cerca,1,5,100,0,0,1.10920542399981
S62,simple,1,cerca,1,6,120,0,0,1.48862810299988
S62,simple,1,cerca,1,7,140,1,1,1.61007861300004
S62,simple,1,cerca,1,8,120,1,0,0.839517383999919
S62,simple,1,cerca,1,9,100,0,2,0.85468648799997
S62,simple,1,cerca,1,10,120,0,0,0.976229389000309
S62,simple,1,cerca,1,11,130,1,3,1.29969931799997
S62,simple,1,cerca,1,12,120,0,4,1.09359819200017
S62,simple,1,cerca,1,13,130,0,0,1.43409645299971
S62,simple,1,cerca,1,14,140,0,0,1.30148742200026
S62,simple,1,cerca,1,15,150,0,0,0.919569690999651
S62,simple,1,cerca,1,16,160,1,5,2.29413113500004
S62,simple,1,cerca,1,17,150,0,6,1.18646443899979
S62,simple,1,cerca,1,18,160,0,0,1.20399825799996
S62,simple,1,cerca,1,19,170,0,0,1.11285498999996
S62,simple,1,cerca,1,20,180,0,0,0.139125891000276
S62,simple,1,cerca,1,21,190,1,7,1.22156763400017
S62,simple,1,cerca,1,22,180,1,0,1.65531561599983
S62,simple,1,cerca,1,23,170,1,0,0.920343745000082
S62,simple,1,cerca,1,24,160,1,0,1.81756189499993
S62,simple,1,cerca,1,25,150,1,0,2.76558979799984
S62,simple,1,cerca,1,26,140,1,0,2.38599415599992
S62,simple,1,cerca,1,27,130,0,8,1.09029032199987
S62,simple,1,cerca,1,28,140,1,9,0.827924073999839
S62,simple,1,cerca,1,29,130,1,0,1.42900027500036
S62,simple,1,cerca,1,30,120,1,0,1.18790051199994
S62,simple,1,cerca,1,31,110,0,10,0.631165249999867
S62,simple,1,cerca,1,32,120,0,0,0.655458572000043
S62,simple,1,cerca,1,33,130,0,0,0.879994331999569
S62,simple,1,cerca,1,34,140,0,0,0.769740607000131
S62,simple,1,cerca,1,35,150,0,0,0.747367550000035
S62,simple,1,cerca,1,36,160,0,0,1.40422906200001
S62,simple,1,cerca,1,37,170,1,11,1.36398065100002
S62,simple,1,cerca,1,38,160,1,0,0.860686413000167
S62,simple,1,cerca,1,39,150,1,0,1.62739476100023
S62,simple,1,cerca,1,40,140,0,12,0.85917160200006
S62,simple,2,cerca,1,1,20,0,0,0.654431567000302
S62,simple,2,cerca,1,2,40,0,0,0.668114650999996
S62,simple,2,cerca,1,3,60,0,0,0.694113484999889
S62,simple,2,cerca,1,4,80,0,0,0.816379795000103
S62,simple,2,cerca,1,5,100,0,0,1.00536577599996
S62,simple,2,cerca,1,6,120,0,0,1.03128669699981
S62,simple,2,cerca,1,7,140,0,0,0.980405368999982
S62,simple,2,cerca,1,8,160,1,1,0.58053457799997
S62,simple,2,cerca,1,9,140,1,0,0.626498239000284
S62,simple,2,cerca,1,10,120,0,2,1.13227044599989
S62,simple,2,cerca,1,11,140,0,0,0.729591036000329
S62,simple,2,cerca,1,12,150,1,3,1.96800609599995
S62,simple,2,cerca,1,13,140,0,4,2.13051517099984
S62,simple,2,cerca,1,14,150,1,5,0.977274360000138
S62,simple,2,cerca,1,15,140,0,6,1.4340659479999
S62,simple,2,cerca,1,16,150,0,0,0.899977325000236
S62,simple,2,cerca,1,17,160,0,0,1.08704088100012
S62,simple,2,cerca,1,18,170,0,0,1.11386231000006
S62,simple,2,cerca,1,19,180,0,0,1.65313972900003
S62,simple,2,cerca,1,20,190,1,7,1.60743978299979
S62,simple,2,cerca,1,21,180,1,0,2.07034938200013
S62,simple,2,cerca,1,22,170,1,0,0.839098057000228
S62,simple,2,cerca,1,23,160,0,8,1.26280789699967
S62,simple,2,cerca,1,24,170,1,9,0.827326548000201
S62,simple,2,cerca,1,25,160,1,0,2.17481732999977
S62,simple,2,cerca,1,26,150,0,10,1.43300281100028
S62,simple,2,cerca,1,27,160,0,0,1.26358177300017
S62,simple,2,cerca,1,28,170,0,0,2.533557191
S62,simple,2,cerca,1,29,180,0,0,0.822499420999975
S62,simple,2,cerca,1,30,190,1,11,1.58600795299981
S62,simple,2,cerca,1,31,180,0,12,1.39830747099995
S62,simple,3,lejos,1,1,220,0,0,2.22562020999976
S62,simple,3,lejos,1,2,220,0,0,0.792106153000077
S62,simple,3,lejos,1,3,220,0,0,0.82589595699983
S62,simple,3,lejos,1,4,220,1,1,1.07251859799999
S62,simple,3,lejos,1,5,200,0,2,1.58453624200001
S62,simple,3,lejos,1,6,220,1,3,0.821036338999875
S62,simple,3,lejos,1,7,210,1,0,1.10310348899975
S62,simple,3,lejos,1,8,200,1,0,1.23011581299988
S62,simple,3,lejos,1,9,190,0,4,1.63200778100008
S62,simple,3,lejos,1,10,200,1,5,1.62071484500029
S62,simple,3,lejos,1,11,190,1,0,1.59294657100008
S62,simple,3,lejos,1,12,180,1,0,0.936075970000275
S62,simple,3,lejos,1,13,170,1,0,0.860874153999703
S62,simple,3,lejos,1,14,160,0,6,1.62370419099989
S62,simple,3,lejos,1,15,170,0,0,1.47442733699972
S62,simple,3,lejos,1,16,180,0,0,1.32212787700018
S62,simple,3,lejos,1,17,190,1,7,0.932849996000186
S62,simple,3,lejos,1,18,180,1,0,0.97572299300009
S62,simple,3,lejos,1,19,170,1,0,1.04616467999995
S62,simple,3,lejos,1,20,160,1,0,2.18415230200026
S62,simple,3,lejos,1,21,150,1,0,3.08316371499996
S62,simple,3,lejos,1,22,140,0,8,0.896162431999983
S62,simple,3,lejos,1,23,150,0,0,0.787151605999952
S62,simple,3,lejos,1,24,160,0,0,1.13294640200002
S62,simple,3,lejos,1,25,170,1,9,1.45807124900011
S62,simple,3,lejos,1,26,160,0,10,1.38963502600018
S62,simple,3,lejos,1,27,170,1,11,2.03290428399987
S62,simple,3,lejos,1,28,160,1,0,1.80698605199996
S62,simple,3,lejos,1,29,150,0,12,1.25386850699988
S62,simple,4,lejos,1,1,220,0,0,0.771057525999822
S62,simple,4,lejos,1,2,220,1,1,1.41595059099973
S62,simple,4,lejos,1,3,200,1,0,1.10499224800014
S62,simple,4,lejos,1,4,180,1,0,0.796673343999828
S62,simple,4,lejos,1,5,160,0,2,2.408986379
S62,simple,4,lejos,1,6,180,0,0,0.793857424999715
S62,simple,4,lejos,1,7,190,0,0,1.61961302400005
S62,simple,4,lejos,1,8,200,1,3,1.81859863799991
S62,simple,4,lejos,1,9,190,1,0,1.07030066899961
S62,simple,4,lejos,1,10,180,1,0,0.798402483000245
S62,simple,4,lejos,1,11,170,1,0,0.873214516000189
S62,simple,4,lejos,1,12,160,0,4,0.929700486000002
S62,simple,4,lejos,1,13,170,0,0,0.8567896630002
S62,simple,4,lejos,1,14,180,0,0,0.716354718000275
S62,simple,4,lejos,1,15,190,0,0,0.792939605999891
S62,simple,4,lejos,1,16,200,0,0,1.17404827500013
S62,simple,4,lejos,1,17,210,0,0,0.806205044999842
S62,simple,4,lejos,1,18,220,0,0,1.21809871000005
S62,simple,4,lejos,1,19,220,1,5,0.676603473999876
S62,simple,4,lejos,1,20,210,1,0,0.919222513000022
S62,simple,4,lejos,1,21,200,1,0,1.37426378099963
S62,simple,4,lejos,1,22,190,1,0,0.775179431000197
S62,simple,4,lejos,1,23,180,1,0,0.892159859000003
S62,simple,4,lejos,1,24,170,0,6,1.33375000199976
S62,simple,4,lejos,1,25,180,1,7,1.46431195600007
S62,simple,4,lejos,1,26,170,1,0,1.80326095300006
S62,simple,4,lejos,1,27,160,1,0,1.53262216999974
S62,simple,4,lejos,1,28,150,0,8,0.772831577000034
S62,simple,4,lejos,1,29,160,0,0,0.0597155140003451
S62,simple,4,lejos,1,30,170,0,0,2.50633653000023
S62,simple,4,lejos,1,31,180,0,0,2.19939114999988
S62,simple,4,lejos,1,32,190,1,9,0.74600515200018
S62,simple,4,lejos,1,33,180,0,10,2.15236719199993
S62,simple,4,lejos,1,34,190,0,0,1.12378493599999
S62,simple,4,lejos,1,35,200,1,11,1.18478406199984
S62,simple,4,lejos,1,36,190,0,12,0.771457326000018
S63,simple,1,lejos,1,1,220,1,0,0.778162372999759
S63,simple,1,lejos,1,2,200,0,1,1.21465273500053
S63,simple,1,lejos,1,3,220,1,2,0.846921487000145
S63,simple,1,lejos,1,4,200,1,0,1.02749873500034
S63,simple,1,lejos,1,5,190,0,3,1.43737891500041
S63,simple,1,lejos,1,6,200,1,4,0.856182796999747
S63,simple,1,lejos,1,7,190,0,5,0.987853286000245
S63,simple,1,lejos,1,8,200,1,6,0.837125723000099
S63,simple,1,lejos,1,9,190,1,0,1.27326641399941
S63,simple,1,lejos,1,10,180,0,7,1.14764805400046
S63,simple,1,lejos,1,11,190,0,0,1.4581977580001
S63,simple,1,lejos,1,12,200,1,8,1.44600528799947
S63,simple,1,lejos,1,13,190,1,0,1.0101486399999
S63,simple,1,lejos,1,14,180,1,0,1.43652143999952
S63,simple,1,lejos,1,15,170,0,9,1.02397268999994
S63,simple,1,lejos,1,16,180,1,10,1.1987017499996
S63,simple,1,lejos,1,17,170,1,0,1.11444029699942
S63,simple,1,lejos,1,18,160,0,11,1.25009028099976
S63,simple,1,lejos,1,19,170,1,12,0.992120984000394
S63,simple,2,cerca,1,1,20,0,0,0.869462218000081
S63,simple,2,cerca,1,2,40,0,0,0.898684610999226
S63,simple,2,cerca,1,3,60,0,0,0.739837518000058
S63,simple,2,cerca,1,4,80,0,0,0.996554126999399
S63,simple,2,cerca,1,5,100,0,0,1.06239839600039
S63,simple,2,cerca,1,6,120,1,1,0.66851965999922
S63,simple,2,cerca,1,7,100,0,2,1.22988803200042
S63,simple,2,cerca,1,8,120,1,3,0.811793287
S63,simple,2,cerca,1,9,110,0,4,0.83809716199994
S63,simple,2,cerca,1,10,120,1,5,0.780550249999578
S63,simple,2,cerca,1,11,110,0,6,1.03527120999934
S63,simple,2,cerca,1,12,120,0,0,0.902301799999805
S63,simple,2,cerca,1,13,130,0,0,0.999386767000033
S63,simple,2,cerca,1,14,140,1,7,0.70508063699981
S63,simple,2,cerca,1,15,130,1,0,1.16817638900011
S63,simple,2,cerca,1,16,120,0,8,0.923898312999881
S63,simple,2,cerca,1,17,130,0,0,1.31267555400063
S63,simple,2,cerca,1,18,140,1,9,0.925259532999917
S63,simple,2,cerca,1,19,130,1,0,0.796269884999674
S63,simple,2,cerca,1,20,120,0,10,0.907533611999497
S63,simple,2,cerca,1,21,130,0,0,1.24372190900067
S63,simple,2,cerca,1,22,140,0,0,0.881660600999567
S63,simple,2,cerca,1,23,150,0,0,1.16608565000024
S63,simple,2,cerca,1,24,160,0,0,1.32747054100037
S63,simple,2,cerca,1,25,170,1,11,0.664876013999674
S63,simple,2,cerca,1,26,160,1,0,0.763381767000283
S63,simple,2,cerca,1,27,150,0,12,1.12568264699985
S63,simple,3,cerca,1,1,20,0,0,0.482338333000371
S63,simple,3,cerca,1,2,40,0,0,0.698516096999811
S63,simple,3,cerca,1,3,60,0,0,0.751641298999857
S63,simple,3,cerca,1,4,80,0,0,0.730714607999289
S63,simple,3,cerca,1,5,100,0,0,0.886195234999832
S63,simple,3,cerca,1,6,120,0,0,0.940825675000269
S63,simple,3,cerca,1,7,140,1,1,0.767971336999835
S63,simple,3,cerca,1,8,120,0,2,0.952738519000377
S63,simple,3,cerca,1,9,140,0,0,1.29033104799964
S63,simple,3,cerca,1,10,150,1,3,0.742293020000034
S63,simple,3,cerca,1,11,140,1,0,1.20080216800034
S63,simple,3,cerca,1,12,130,0,4,1.16848421299983
S63,simple,3,cerca,1,13,140,0,0,1.00844978000077
S63,simple,3,cerca,1,14,150,1,5,1.26692043000003
S63,simple,3,cerca,1,15,140,1,0,1.02136986999994
S63,simple,3,cerca,1,16,130,1,0,0.998140996999609
S63,simple,3,cerca,1,17,120,0,6,1.01211154799967
S63,simple,3,cerca,1,18,130,0,0,1.07592222200037
S63,simple,3,cerca,1,19,140,0,0,1.05455689500013
S63,simple,3,cerca,1,20,150,1,7,0.950769375000164
S63,simple,3,cerca,1,21,140,1,0,0.770661728999585
S63,simple,3,cerca,1,22,130,0,8,0.849944364000294
S63,simple,3,cerca,1,23,140,1,9,0.731503210000483
S63,simple,3,cerca,1,24,130,0,10,0.780675563999466
S63,simple,3,cerca,1,25,140,0,0,0.658604612999625
S63,simple,3,cerca,1,26,150,0,0,0.887354661000245
S63,simple,3,cerca,1,27,160,0,0,1.20818042700012
S63,simple,3,cerca,1,28,170,1,11,0.732010587000332
S63,simple,3,cerca,1,29,160,0,12,1.52836146999925
S63,simple,4,lejos,1,1,220,0,0,1.0018663740002
S63,simple,4,lejos,1,2,220,1,1,0.695346198000152
S63,simple,4,lejos,1,3,200,1,0,0.885792702999424
S63,simple,4,lejos,1,4,180,1,0,1.04537052600062
S63,simple,4,lejos,1,5,160,1,0,1.31766095300009
S63,simple,4,lejos,1,6,140,0,2,0.984687653999572
S63,simple,4,lejos,1,7,160,0,0,0.890039621000142
S63,simple,4,lejos,1,8,170,0,0,1.1711161559997
S63,simple,4,lejos,1,9,180,1,3,1.49564653300058
S63,simple,4,lejos,1,10,170,1,0,0.964749768000729
S63,simple,4,lejos,1,11,160,0,4,1.45671578900055
S63,simple,4,lejos,1,12,170,0,0,1.10548797199954
S63,simple,4,lejos,1,13,180,0,0,1.01996633500039
S63,simple,4,lejos,1,14,190,1,5,0.91035563100013
S63,simple,4,lejos,1,15,180,0,6,0.996611529999427
S63,simple,4,lejos,1,16,190,0,0,0.981688577000568
S63,simple,4,lejos,1,17,200,1,7,0.961239305999698
S63,simple,4,lejos,1,18,190,1,0,0.902670532000229
S63,simple,4,lejos,1,19,180,1,0,0.86767708699972
S63,simple,4,lejos,1,20,170,1,0,0.908120396000413
S63,simple,4,lejos,1,21,160,0,8,1.15838919500038
S63,simple,4,lejos,1,22,170,0,0,1.02232049299982
S63,simple,4,lejos,1,23,180,0,0,1.36884778100011
S63,simple,4,lejos,1,24,190,1,9,0.768689386000005
S63,simple,4,lejos,1,25,180,1,0,0.72282810500019
S63,simple,4,lejos,1,26,170,1,0,1.01033632099916
S63,simple,4,lejos,1,27,160,0,10,1.5595602049998
S63,simple,4,lejos,1,28,170,0,0,1.26312683200013
S63,simple,4,lejos,1,29,180,1,11,0.850292185999933
S63,simple,4,lejos,1,30,170,1,0,0.795100913999704
S63,simple,4,lejos,1,31,160,1,0,1.39265301100022
S63,simple,4,lejos,1,32,150,0,12,1.08979720199932
S65,simple,1,lejos,1,1,220,1,0,0.926120409999839
S65,simple,1,lejos,1,2,200,1,0,1.69589370499989
S65,simple,1,lejos,1,3,180,0,1,1.33066393200011
S65,simple,1,lejos,1,4,200,1,2,1.36183084500021
S65,simple,1,lejos,1,5,180,0,3,1.36124387400014
S65,simple,1,lejos,1,6,190,1,4,1.64710255500017
S65,simple,1,lejos,1,7,180,0,5,1.53164679799988
S65,simple,1,lejos,1,8,190,0,0,1.23730447299999
S65,simple,1,lejos,1,9,200,0,0,1.54971610500002
S65,simple,1,lejos,1,10,210,0,0,1.91991833199995
S65,simple,1,lejos,1,11,220,0,0,1.66548420400022
S65,simple,1,lejos,1,12,220,1,6,1.80003399300017
S65,simple,1,lejos,1,13,210,0,7,1.7775933150001
S65,simple,1,lejos,1,14,220,0,0,1.77908420800009
S65,simple,1,lejos,1,15,220,0,0,1.744373279
S65,simple,1,lejos,1,16,220,0,0,1.88224459999992
S65,simple,1,lejos,1,17,220,0,0,2.52612800500015
S65,simple,1,lejos,1,18,220,0,0,3.13414366300003
S65,simple,1,lejos,1,19,220,0,0,2.09142092299999
S65,simple,1,lejos,1,20,220,1,8,2.15214662699987
S65,simple,1,lejos,1,21,210,0,9,1.3206604049999
S65,simple,1,lejos,1,22,220,1,10,1.43945945999985
S65,simple,1,lejos,1,23,210,0,11,1.32619343600004
S65,simple,1,lejos,1,24,220,1,12,1.67573795400017
S65,simple,2,cerca,1,1,20,0,0,1.49558999800001
S65,simple,2,cerca,1,2,40,0,0,0.66155326299986
S65,simple,2,cerca,1,3,60,0,0,0.918553522000138
S65,simple,2,cerca,1,4,80,0,0,1.41472406199978
S65,simple,2,cerca,1,5,100,1,1,0.625390939999761
S65,simple,2,cerca,1,6,80,0,2,1.01426842899991
S65,simple,2,cerca,1,7,100,1,3,0.621743396000056
S65,simple,2,cerca,1,8,90,0,4,1.93622681199986
S65,simple,2,cerca,1,9,100,1,5,0.720176597000318
S65,simple,2,cerca,1,10,90,0,6,1.07635686100002
S65,simple,2,cerca,1,11,100,1,7,0.714523206000194
S65,simple,2,cerca,1,12,90,0,8,0.956485110999893
S65,simple,2,cerca,1,13,100,1,9,1.49710828300022
S65,simple,2,cerca,1,14,90,0,10,0.642935361999662
S65,simple,2,cerca,1,15,100,1,11,0.775595202000204
S65,simple,2,cerca,1,16,90,0,12,1.38457341999992
S65,simple,3,cerca,1,1,20,0,0,0.929296165000324
S65,simple,3,cerca,1,2,40,0,0,0.376633850999951
S65,simple,3,cerca,1,3,60,0,0,0.494281136999689
S65,simple,3,cerca,1,4,80,0,0,0.8437147249997
S65,simple,3,cerca,1,5,100,0,0,2.35269606699967
S65,simple,3,cerca,1,6,120,1,1,0.474678335000135
S65,simple,3,cerca,1,7,100,1,0,1.4912575469998
S65,simple,3,cerca,1,8,80,0,2,0.739204317999793
S65,simple,3,cerca,1,9,100,1,3,1.2442074810001
S65,simple,3,cerca,1,10,90,0,4,1.08851961200025
S65,simple,3,cerca,1,11,100,1,5,1.36936283100022
S65,simple,3,cerca,1,12,90,0,6,1.05086007999989
S65,simple,3,cerca,1,13,100,1,7,0.614554991000205
S65,simple,3,cerca,1,14,90,0,8,1.0866199369998
S65,simple,3,cerca,1,15,100,1,9,1.36267538199991
S65,simple,3,cerca,1,16,90,0,10,1.03813856899978
S65,simple,3,cerca,1,17,100,1,11,1.77430078999987
S65,simple,3,cerca,1,18,90,0,12,0.641238283000348
S65,simple,4,lejos,1,1,220,1,0,1.38637387000017
S65,simple,4,lejos,1,2,200,1,0,1.30463744600002
S65,simple,4,lejos,1,3,180,1,0,0.913336405999871
S65,simple,4,lejos,1,4,160,1,0,2.21284058999981
S65,simple,4,lejos,1,5,140,0,1,1.66968709899993
S65,simple,4,lejos,1,6,160,1,2,1.00835618000019
S65,simple,4,lejos,1,7,140,1,0,4.99471220099986
S65,simple,4,lejos,1,8,130,0,3,1.84429770799989
S65,simple,4,lejos,1,9,140,0,0,1.69594031499992
S65,simple,4,lejos,1,10,150,0,0,1.16083255900003
S65,simple,4,lejos,1,11,160,0,0,1.95623939799998
S65,simple,4,lejos,1,12,170,0,0,1.29555641500019
S65,simple,4,lejos,1,13,180,0,0,1.23571333400014
S65,simple,4,lejos,1,14,190,1,4,2.08075719199996
S65,simple,4,lejos,1,15,180,1,0,0.921463865000078
S65,simple,4,lejos,1,16,170,1,0,0.662332633999995
S65,simple,4,lejos,1,17,160,1,0,1.18426229199986
S65,simple,4,lejos,1,18,150,1,0,1.35281891599971
S65,simple,4,lejos,1,19,140,1,0,1.65605566700015
S65,simple,4,lejos,1,20,130,1,0,1.92674448000025
S65,simple,4,lejos,1,21,120,1,0,1.52861823500007
S65,simple,4,lejos,1,22,110,0,5,1.24865314099998
S65,simple,4,lejos,1,23,120,0,0,2.1618896179998
S65,simple,4,lejos,1,24,130,0,0,2.11426133000032
S65,simple,4,lejos,1,25,140,1,6,1.69336470400003
S65,simple,4,lejos,1,26,130,1,0,2.45159643699981
S65,simple,4,lejos,1,27,120,0,7,1.74604425000007
S65,simple,4,lejos,1,28,130,1,8,2.49014089499997
S65,simple,4,lejos,1,29,120,1,0,1.59271422799975
S65,simple,4,lejos,1,30,110,1,0,1.59861995400024
S65,simple,4,lejos,1,31,100,0,9,1.63413100199978
S65,simple,4,lejos,1,32,110,0,0,1.57427830699999
S65,simple,4,lejos,1,33,120,1,10,1.44655167300016
S65,simple,4,lejos,1,34,110,1,0,1.74408600000015
S65,simple,4,lejos,1,35,100,0,11,0.847099717999754
S65,simple,4,lejos,1,36,110,1,12,1.90129862100002
S65,simple,5,lejos,1,1,220,1,0,0.585794351999994
S65,simple,5,lejos,1,2,200,1,0,0.512271141999918
S65,simple,5,lejos,1,3,180,1,0,0.430554303000008
S65,simple,5,lejos,1,4,160,1,0,0.740847956999914
S65,simple,5,lejos,1,5,140,1,0,0.571090954999818
S65,simple,5,lejos,1,6,120,1,0,0.986619425000299
S65,simple,5,lejos,1,7,100,1,0,0.955963715000053
S65,simple,5,lejos,1,8,80,0,1,0.488049064999814
S65,simple,5,lejos,1,9,100,0,0,0.759708199000215
S65,simple,5,lejos,1,10,120,1,2,1.06436622799993
S65,simple,5,lejos,1,11,100,0,3,1.18692887599991
S65,simple,5,lejos,1,12,110,1,4,1.00993054699984
S65,simple,5,lejos,1,13,100,1,0,1.22490073400013
S65,simple,5,lejos,1,14,90,0,5,0.48078825399989
S65,simple,5,lejos,1,15,100,1,6,1.00549618200012
S65,simple,5,lejos,1,16,90,0,7,0.601526202000059
S65,simple,5,lejos,1,17,100,0,0,0.779326156000025
S65,simple,5,lejos,1,18,110,1,8,1.51106089200039
S65,simple,5,lejos,1,19,100,0,9,0.513299061999987
S65,simple,5,lejos,1,20,110,0,0,0.996631976000117
S65,simple,5,lejos,1,21,120,1,10,0.5251686470001
S65,simple,5,lejos,1,22,110,0,11,0.552885519000029
S65,simple,5,lejos,1,23,120,1,12,0.601080920000186
S66,simple,1,cerca,1,1,20,0,0,0.967938247999882
S66,simple,1,cerca,1,2,40,0,0,0.948515338999641
S66,simple,1,cerca,1,3,60,0,0,0.858817194999574
S66,simple,1,cerca,1,4,80,0,0,1.05390377700041
S66,simple,1,cerca,1,5,100,1,1,1.12453843599997
S66,simple,1,cerca,1,6,80,0,2,1.12751340900013
S66,simple,1,cerca,1,7,100,1,3,1.23154158000034
S66,simple,1,cerca,1,8,90,0,4,1.51433442799953
S66,simple,1,cerca,1,9,100,1,5,0.963418242000444
S66,simple,1,cerca,1,10,90,0,6,1.48371609800051
S66,simple,1,cerca,1,11,100,1,7,0.967617471000267
S66,simple,1,cerca,1,12,90,0,8,1.15745326600063
S66,simple,1,cerca,1,13,100,1,9,2.39732221800023
S66,simple,1,cerca,1,14,90,1,0,1.62483237099968
S66,simple,1,cerca,1,15,80,0,10,0.897664764999718
S66,simple,1,cerca,1,16,90,0,0,1.87792550199993
S66,simple,1,cerca,1,17,100,1,11,1.60221969299982
S66,simple,1,cerca,1,18,90,0,12,1.56188355300037
S66,simple,2,lejos,1,1,220,1,0,0.90132949800045
S66,simple,2,lejos,1,2,200,1,0,1.5798865350007
S66,simple,2,lejos,1,3,180,0,1,1.46361426000021
S66,simple,2,lejos,1,4,200,1,2,0.763963638999485
S66,simple,2,lejos,1,5,180,1,0,0.885826110999915
S66,simple,2,lejos,1,6,170,1,0,0.916731846999937
S66,simple,2,lejos,1,7,160,1,0,1.1821274949998
S66,simple,2,lejos,1,8,150,1,0,1.56223687399961
S66,simple,2,lejos,1,9,140,1,0,1.46691343899965
S66,simple,2,lejos,1,10,130,1,0,1.92285808300039
S66,simple,2,lejos,1,11,120,0,3,0.951118887999655
S66,simple,2,lejos,1,12,130,1,4,1.21628179799973
S66,simple,2,lejos,1,13,120,1,0,1.59943935599949
S66,simple,2,lejos,1,14,110,0,5,0.992861665999953
S66,simple,2,lejos,1,15,120,1,6,1.08063985200079
S66,simple,2,lejos,1,16,110,0,7,1.13900341699991
S66,simple,2,lejos,1,17,120,0,0,1.42936260200077
S66,simple,2,lejos,1,18,130,1,8,1.34970631600027
S66,simple,2,lejos,1,19,120,0,9,1.67007510599979
S66,simple,2,lejos,1,20,130,1,10,0.949801230000048
S66,simple,2,lejos,1,21,120,0,11,1.26474884100026
S66,simple,2,lejos,1,22,130,1,12,1.85931822999919
S66,simple,3,lejos,1,1,220,1,0,1.22536621900053
S66,simple,3,lejos,1,2,200,1,0,1.47867532200053
S66,simple,3,lejos,1,3,180,1,0,0.920084374999533
S66,simple,3,lejos,1,4,160,1,0,0.759520150999379
S66,simple,3,lejos,1,5,140,1,0,1.11082966200047
S66,simple,3,lejos,1,6,120,0,1,2.53468045600039
S66,simple,3,lejos,1,7,140,1,2,0.878469006000159
S66,simple,3,lejos,1,8,120,1,0,2.29510506699989
S66,simple,3,lejos,1,9,110,0,3,2.22128223900017
S66,simple,3,lejos,1,10,120,1,4,2.10648890199991
S66,simple,3,lejos,1,11,110,1,0,2.23788556900035
S66,simple,3,lejos,1,12,100,0,5,1.12015569600044
S66,simple,3,lejos,1,13,110,0,0,1.3922990179999
S66,simple,3,lejos,1,14,120,0,0,1.74320080699999
S66,simple,3,lejos,1,15,130,1,6,1.24344427800042
S66,simple,3,lejos,1,16,120,1,0,1.09070536200034
S66,simple,3,lejos,1,17,110,1,0,1.66568516300049
S66,simple,3,lejos,1,18,100,0,7,1.78237010200064
S66,simple,3,lejos,1,19,110,1,8,2.80116709600043
S66,simple,3,lejos,1,20,100,0,9,1.21429795399945
S66,simple,3,lejos,1,21,110,1,10,1.6596281660004
S66,simple,3,lejos,1,22,100,0,11,1.74201604399968
S66,simple,3,lejos,1,23,110,1,12,1.02807343200038
S66,simple,4,cerca,1,1,20,0,0,0.857400232000145
S66,simple,4,cerca,1,2,40,0,0,0.936841081999773
S66,simple,4,cerca,1,3,60,0,0,0.790291844999956
S66,simple,4,cerca,1,4,80,0,0,0.779892723999183
S66,simple,4,cerca,1,5,100,0,0,1.51442065699939
S66,simple,4,cerca,1,6,120,0,0,2.01254566999978
S66,simple,4,cerca,1,7,140,1,1,0.741179561999161
S66,simple,4,cerca,1,8,120,1,0,1.98392347899971
S66,simple,4,cerca,1,9,100,0,2,1.27512248800031
S66,simple,4,cerca,1,10,120,1,3,0.983871050999369
S66,simple,4,cerca,1,11,110,1,0,2.13430187499944
S66,simple,4,cerca,1,12,100,0,4,1.11829986800058
S66,simple,4,cerca,1,13,110,1,5,1.85220521199972
S66,simple,4,cerca,1,14,100,0,6,2.26685471599922
S66,simple,4,cerca,1,15,110,1,7,1.36844920299973
S66,simple,4,cerca,1,16,100,1,0,2.2399111299992
S66,simple,4,cerca,1,17,90,0,8,1.12727921900023
S66,simple,4,cerca,1,18,100,0,0,1.03525969299972
S66,simple,4,cerca,1,19,110,0,0,1.17019134099974
S66,simple,4,cerca,1,20,120,1,9,1.7380494149993
S66,simple,4,cerca,1,21,110,1,0,1.39013826399969
S66,simple,4,cerca,1,22,100,0,10,1.32365287599987
S66,simple,4,cerca,1,23,110,1,11,3.60347716700016
S66,simple,4,cerca,1,24,100,0,12,1.47931596999933
S67,simple,1,cerca,1,1,20,0,0,0.657738013998824
S67,simple,1,cerca,1,2,40,0,0,0.613593686999593
S67,simple,1,cerca,1,3,60,0,0,0.653210665999723
S67,simple,1,cerca,1,4,80,0,0,0.731276697999419
S67,simple,1,cerca,1,5,100,1,1,1.03993280399845
S67,simple,1,cerca,1,6,80,0,2,0.813306721998742
S67,simple,1,cerca,1,7,100,1,3,1.19156280899915
S67,simple,1,cerca,1,8,90,0,4,1.08225217700056
S67,simple,1,cerca,1,9,100,1,5,1.46486804500091
S67,simple,1,cerca,1,10,90,0,6,0.77738657000009
S67,simple,1,cerca,1,11,100,0,0,1.01515701000062
S67,simple,1,cerca,1,12,110,1,7,1.42748753300111
S67,simple,1,cerca,1,13,100,1,0,1.15257759899941
S67,simple,1,cerca,1,14,90,0,8,0.872515150000254
S67,simple,1,cerca,1,15,100,0,0,2.16357184200024
S67,simple,1,cerca,1,16,110,0,0,1.51075445400056
S67,simple,1,cerca,1,17,120,0,0,1.4431881799992
S67,simple,1,cerca,1,18,130,0,0,1.04301351600043
S67,simple,1,cerca,1,19,140,1,9,1.05336802000056
S67,simple,1,cerca,1,20,130,1,0,1.25178258800042
S67,simple,1,cerca,1,21,120,1,0,1.12676280899905
S67,simple,1,cerca,1,22,110,1,0,1.17332700800034
S67,simple,1,cerca,1,23,100,1,0,1.4489806319998
S67,simple,1,cerca,1,24,90,0,10,0.769347687999471
S67,simple,1,cerca,1,25,100,1,11,1.71619276800084
S67,simple,1,cerca,1,26,90,0,12,1.09706756800006
S67,simple,2,lejos,1,1,220,1,0,0.970287582998935
S67,simple,2,lejos,1,2,200,1,0,0.606699985000887
S67,simple,2,lejos,1,3,180,1,0,0.922537927999656
S67,simple,2,lejos,1,4,160,1,0,0.75914054200075
S67,simple,2,lejos,1,5,140,1,0,0.790642251999088
S67,simple,2,lejos,1,6,120,0,1,1.78951935999976
S67,simple,2,lejos,1,7,140,1,2,0.684261592001349
S67,simple,2,lejos,1,8,120,0,3,1.01739235100104
S67,simple,2,lejos,1,9,130,1,4,0.957874389998324
S67,simple,2,lejos,1,10,120,0,5,0.880077432999315
S67,simple,2,lejos,1,11,130,1,6,0.735240619000251
S67,simple,2,lejos,1,12,120,1,0,1.12678625499939
S67,simple,2,lejos,1,13,110,1,0,1.13988784700086
S67,simple,2,lejos,1,14,100,1,0,0.757765608999762
S67,simple,2,lejos,1,15,90,0,7,0.869607149999865
S67,simple,2,lejos,1,16,100,1,8,0.850444427000184
S67,simple,2,lejos,1,17,90,0,9,0.672455612000704
S67,simple,2,lejos,1,18,100,0,0,1.36695187800069
S67,simple,2,lejos,1,19,110,0,0,1.22314562200154
S67,simple,2,lejos,1,20,120,1,10,1.27419178299897
S67,simple,2,lejos,1,21,110,1,0,0.716200742999717
S67,simple,2,lejos,1,22,100,1,0,1.39311784500023
S67,simple,2,lejos,1,23,90,0,11,0.859002440998665
S67,simple,2,lejos,1,24,100,0,0,0.810538532999999
S67,simple,2,lejos,1,25,110,0,0,0.979077445999792
S67,simple,2,lejos,1,26,120,1,12,0.932321374999447
S67,simple,3,cerca,1,1,20,0,0,0.883007242999156
S67,simple,3,cerca,1,2,40,0,0,0.604818066000007
S67,simple,3,cerca,1,3,60,0,0,0.701823741001135
S67,simple,3,cerca,1,4,80,0,0,0.9722336979994
S67,simple,3,cerca,1,5,100,1,1,1.85071934000007
S67,simple,3,cerca,1,6,80,0,2,0.706543820000661
S67,simple,3,cerca,1,7,100,1,3,1.15292742699967
S67,simple,3,cerca,1,8,90,0,4,1.68608774700078
S67,simple,3,cerca,1,9,100,1,5,1.09368843000084
S67,simple,3,cerca,1,10,90,1,0,1.34600637699987
S67,simple,3,cerca,1,11,80,0,6,0.655914687000404
S67,simple,3,cerca,1,12,90,0,0,1.79176741599986
S67,simple,3,cerca,1,13,100,1,7,0.889035569000043
S67,simple,3,cerca,1,14,90,0,8,0.94642230700083
S67,simple,3,cerca,1,15,100,1,9,1.60881273599989
S67,simple,3,cerca,1,16,90,0,10,1.78090386700023
S67,simple,3,cerca,1,17,100,0,0,0.776565730000584
S67,simple,3,cerca,1,18,110,1,11,1.10206189199926
S67,simple,3,cerca,1,19,100,1,0,1.11188283500087
S67,simple,3,cerca,1,20,90,0,12,0.977652026000214
S67,simple,4,lejos,1,1,220,1,0,0.77749932199913
S67,simple,4,lejos,1,2,200,1,0,0.683255419999114
S67,simple,4,lejos,1,3,180,1,0,0.529871323000407
S67,simple,4,lejos,1,4,160,1,0,0.730743055000858
S67,simple,4,lejos,1,5,140,1,0,0.844170861000748
S67,simple,4,lejos,1,6,120,0,1,0.897673940999084
S67,simple,4,lejos,1,7,140,1,2,0.75098201900073
S67,simple,4,lejos,1,8,120,1,0,0.723156430000017
S67,simple,4,lejos,1,9,110,1,0,0.764119388000836
S67,simple,4,lejos,1,10,100,0,3,0.960308600999269
S67,simple,4,lejos,1,11,110,0,0,1.25970955199955
S67,simple,4,lejos,1,12,120,0,0,1.56376420400011
S67,simple,4,lejos,1,13,130,1,4,0.690940992000833
S67,simple,4,lejos,1,14,120,1,0,0.738355223998951
S67,simple,4,lejos,1,15,110,1,0,0.700840849000087
S67,simple,4,lejos,1,16,100,1,0,1.03388228900076
S67,simple,4,lejos,1,17,90,0,5,0.827181528000438
S67,simple,4,lejos,1,18,100,0,0,1.15482241000063
S67,simple,4,lejos,1,19,110,0,0,1.37733321199994
S67,simple,4,lejos,1,20,120,0,0,1.21549732399944
S67,simple,4,lejos,1,21,130,1,6,0.755301618000885
S67,simple,4,lejos,1,22,120,1,0,1.33654644600028
S67,simple,4,lejos,1,23,110,1,0,0.943541691000064
S67,simple,4,lejos,1,24,100,0,7,0.743364999998448
S67,simple,4,lejos,1,25,110,1,8,0.853882816998521
S67,simple,4,lejos,1,26,100,0,9,0.830406188999405
S67,simple,4,lejos,1,27,110,0,0,1.19289959299931
S67,simple,4,lejos,1,28,120,0,0,1.57859529899906
S67,simple,4,lejos,1,29,130,1,10,1.23084992100121
S67,simple,4,lejos,1,30,120,1,0,1.24755499400089
S67,simple,4,lejos,1,31,110,1,0,0.858021468000516
S67,simple,4,lejos,1,32,100,1,0,0.881711080999594
S67,simple,4,lejos,1,33,90,0,11,0.686290404999454
S67,simple,4,lejos,1,34,100,0,0,0.832434541000111
S67,simple,4,lejos,1,35,110,0,0,0.816874637999717
S67,simple,4,lejos,1,36,120,1,12,1.15600320999874
S68,simple,1,cerca,1,1,20,0,0,0.766865237999809
S68,simple,1,cerca,1,2,40,0,0,0.71516915400025
S68,simple,1,cerca,1,3,60,0,0,0.759958687000108
S68,simple,1,cerca,1,4,80,0,0,0.724636544999157
S68,simple,1,cerca,1,5,100,0,0,1.82042521999938
S68,simple,1,cerca,1,6,120,1,1,2.56789802899948
S68,simple,1,cerca,1,7,100,1,0,2.15161527499913
S68,simple,1,cerca,1,8,80,0,2,0.938731113999893
S68,simple,1,cerca,1,9,100,0,0,1.27644303299894
S68,simple,1,cerca,1,10,110,1,3,0.81201110100119
S68,simple,1,cerca,1,11,100,0,4,1.04603680400032
S68,simple,1,cerca,1,12,110,1,5,1.36708677800016
S68,simple,1,cerca,1,13,100,0,6,1.2188259859995
S68,simple,1,cerca,1,14,110,0,0,1.3941411679989
S68,simple,1,cerca,1,15,120,0,0,0.911565532998793
S68,simple,1,cerca,1,16,130,1,7,0.936779999999999
S68,simple,1,cerca,1,17,120,1,0,2.38247434000004
S68,simple,1,cerca,1,18,110,0,8,0.880599471998721
S68,simple,1,cerca,1,19,120,0,0,0.793977254999845
S68,simple,1,cerca,1,20,130,1,9,0.987987709999288
S68,simple,1,cerca,1,21,120,0,10,1.40134556300109
S68,simple,1,cerca,1,22,130,0,0,0.939929269999993
S68,simple,1,cerca,1,23,140,0,0,0.670948857999974
S68,simple,1,cerca,1,24,150,0,0,0.672925053000654
S68,simple,1,cerca,1,25,160,1,11,1.53778174500076
S68,simple,1,cerca,1,26,150,0,12,2.50251580800068
S68,simple,2,cerca,1,1,20,0,0,1.05069964799986
S68,simple,2,cerca,1,2,40,0,0,0.704665339999337
S68,simple,2,cerca,1,3,60,0,0,1.01939145899996
S68,simple,2,cerca,1,4,80,0,0,0.96968921000007
S68,simple,2,cerca,1,5,100,1,1,1.64954937099901
S68,simple,2,cerca,1,6,80,0,2,1.05632964699907
S68,simple,2,cerca,1,7,100,0,0,2.00360672100032
S68,simple,2,cerca,1,8,110,0,0,1.27225263100081
S68,simple,2,cerca,1,9,120,1,3,2.22639218800032
S68,simple,2,cerca,1,10,110,0,4,2.09265454399974
S68,simple,2,cerca,1,11,120,1,5,1.17848264099848
S68,simple,2,cerca,1,12,110,0,6,1.56561092300035
S68,simple,2,cerca,1,13,120,1,7,1.6526751850015
S68,simple,2,cerca,1,14,110,0,8,0.861588703999587
S68,simple,2,cerca,1,15,120,0,0,1.67701116199896
S68,simple,2,cerca,1,16,130,1,9,0.835627268999815
S68,simple,2,cerca,1,17,120,1,0,0.89093285600029
S68,simple,2,cerca,1,18,110,0,10,0.982147537000856
S68,simple,2,cerca,1,19,120,0,0,0.885085608999361
S68,simple,2,cerca,1,20,130,0,0,1.77300732499862
S68,simple,2,cerca,1,21,140,0,0,1.80103008900005
S68,simple,2,cerca,1,22,150,1,11,1.03123877000144
S68,simple,2,cerca,1,23,140,1,0,1.29795545600064
S68,simple,2,cerca,1,24,130,0,12,0.942097503999321
S68,simple,3,lejos,1,1,220,1,0,0.668206497000938
S68,simple,3,lejos,1,2,200,1,0,0.627680737999981
S68,simple,3,lejos,1,3,180,1,0,1.01484727599927
S68,simple,3,lejos,1,4,160,1,0,1.3913403330007
S68,simple,3,lejos,1,5,140,0,1,0.881371621000653
S68,simple,3,lejos,1,6,160,0,0,0.761791777000326
S68,simple,3,lejos,1,7,180,0,0,2.23584456299977
S68,simple,3,lejos,1,8,200,1,2,0.774146987998392
S68,simple,3,lejos,1,9,180,1,0,0.78149970099912
S68,simple,3,lejos,1,10,170,0,3,2.3180633159991
S68,simple,3,lejos,1,11,180,1,4,0.977930577999359
S68,simple,3,lejos,1,12,170,0,5,1.05421418500009
S68,simple,3,lejos,1,13,180,1,6,1.27486193300138
S68,simple,3,lejos,1,14,170,1,0,0.709702230000403
S68,simple,3,lejos,1,15,160,1,0,0.749378615000751
S68,simple,3,lejos,1,16,150,1,0,0.802469857999313
S68,simple,3,lejos,1,17,140,1,0,0.884812357999181
S68,simple,3,lejos,1,18,130,1,0,0.697992003999389
S68,simple,3,lejos,1,19,120,1,0,0.953254114001538
S68,simple,3,lejos,1,20,110,1,0,1.35385143900021
S68,simple,3,lejos,1,21,100,0,7,0.947564123998745
S68,simple,3,lejos,1,22,110,0,0,1.38506720499936
S68,simple,3,lejos,1,23,120,0,0,0.763356159999603
S68,simple,3,lejos,1,24,130,1,8,1.57804594300069
S68,simple,3,lejos,1,25,120,0,9,0.761528086000908
S68,simple,3,lejos,1,26,130,0,0,2.16034311000112
S68,simple,3,lejos,1,27,140,1,10,1.30514451400086
S68,simple,3,lejos,1,28,130,1,0,1.88018538300093
S68,simple,3,lejos,1,29,120,0,11,0.726206330999048
S68,simple,3,lejos,1,30,130,1,12,1.74663853499987
S68,simple,4,lejos,1,1,220,1,0,0.655019136000192
S68,simple,4,lejos,1,2,200,1,0,0.737807850000536
S68,simple,4,lejos,1,3,180,1,0,0.506104878999395
S68,simple,4,lejos,1,4,160,1,0,0.778515238000182
S68,simple,4,lejos,1,5,140,1,0,0.819199622001179
S68,simple,4,lejos,1,6,120,1,0,1.67423516800045
S68,simple,4,lejos,1,7,100,0,1,0.643372328999249
S68,simple,4,lejos,1,8,120,0,0,0.619566934999966
S68,simple,4,lejos,1,9,140,0,0,0.566027468999891
S68,simple,4,lejos,1,10,160,0,0,0.510018526998465
S68,simple,4,lejos,1,11,180,1,2,1.00834060600027
S68,simple,4,lejos,1,12,160,1,0,1.57629163699858
S68,simple,4,lejos,1,13,150,1,0,0.966599404999215
S68,simple,4,lejos,1,14,140,1,0,0.681931377001092
S68,simple,4,lejos,1,15,130,1,0,0.809373772999606
S68,simple,4,lejos,1,16,120,0,3,0.661881622001601
S68,simple,4,lejos,1,17,130,0,0,0.876874198998848
S68,simple,4,lejos,1,18,140,0,0,1.9476527780007
S68,simple,4,lejos,1,19,150,0,0,1.44169637699997
S68,simple,4,lejos,1,20,160,0,0,0.979516647001219
S68,simple,4,lejos,1,21,170,0,0,0.686789102001057
S68,simple,4,lejos,1,22,180,1,4,1.41502777300047
S68,simple,4,lejos,1,23,170,1,0,1.16625076599848
S68,simple,4,lejos,1,24,160,1,0,1.8801457160007
S68,simple,4,lejos,1,25,150,1,0,0.92040427000029
S68,simple,4,lejos,1,26,140,1,0,0.745411625000997
S68,simple,4,lejos,1,27,130,0,5,2.83697823199873
S68,simple,4,lejos,1,28,140,0,0,1.94703364700035
S68,simple,4,lejos,1,29,150,0,0,1.49122772199917
S68,simple,4,lejos,1,30,160,0,0,0.700297556000805
S68,simple,4,lejos,1,31,170,0,0,1.76483674300107
S68,simple,4,lejos,1,32,180,1,6,0.582767461999538
S68,simple,4,lejos,1,33,170,1,0,0.571257875999436
S68,simple,4,lejos,1,34,160,1,0,2.50028899000063
S68,simple,4,lejos,1,35,150,1,0,0.709297867999339
S68,simple,4,lejos,1,36,140,1,0,1.0242873749994
S68,simple,4,lejos,1,37,130,1,0,1.24874865299898
S68,simple,4,lejos,1,38,120,0,7,2.62033047599834
S68,simple,4,lejos,1,39,130,1,8,1.91228666900133
S68,simple,4,lejos,1,40,120,0,9,2.44307685300009
S68,simple,4,lejos,1,41,130,0,0,1.66037515199969
S68,simple,4,lejos,1,42,140,0,0,0.911451687999943
S68,simple,4,lejos,1,43,150,1,10,0.915573080001195
S68,simple,4,lejos,1,44,140,1,0,1.80988812900068
S68,simple,4,lejos,1,45,130,0,11,0.954715235000549
S68,simple,4,lejos,1,46,140,1,12,1.15651072699984
S69,simple,1,lejos,1,1,220,1,0,1.06409009700292
S69,simple,1,lejos,1,2,200,1,0,0.700220509999781
S69,simple,1,lejos,1,3,180,1,0,0.990944242999831
S69,simple,1,lejos,1,4,160,1,0,0.875911679002456
S69,simple,1,lejos,1,5,140,0,1,0.979821938999521
S69,simple,1,lejos,1,6,160,1,2,1.28955572000268
S69,simple,1,lejos,1,7,140,0,3,1.61597688899928
S69,simple,1,lejos,1,8,150,1,4,1.54720570200152
S69,simple,1,lejos,1,9,140,0,5,0.858415056995
S69,simple,1,lejos,1,10,150,1,6,1.49983141000121
S69,simple,1,lejos,1,11,140,1,0,1.13699143299891
S69,simple,1,lejos,1,12,130,0,7,0.996760048001306
S69,simple,1,lejos,1,13,140,0,0,0.928587111993693
S69,simple,1,lejos,1,14,150,0,0,1.04119977400114
S69,simple,1,lejos,1,15,160,1,8,0.959690980002051
S69,simple,1,lejos,1,16,150,1,0,0.858235571002297
S69,simple,1,lejos,1,17,140,1,0,1.1339465120036
S69,simple,1,lejos,1,18,130,0,9,0.886406516001443
S69,simple,1,lejos,1,19,140,0,0,1.46444131700264
S69,simple,1,lejos,1,20,150,0,0,1.06280964299367
S69,simple,1,lejos,1,21,160,1,10,1.26985306000279
S69,simple,1,lejos,1,22,150,1,0,1.03259498800617
S69,simple,1,lejos,1,23,140,1,0,0.753421768997214
S69,simple,1,lejos,1,24,130,1,0,0.907027776003815
S69,simple,1,lejos,1,25,120,0,11,0.941094123998482
S69,simple,1,lejos,1,26,130,0,0,1.24181997999403
S69,simple,1,lejos,1,27,140,0,0,0.800065168004949
S69,simple,1,lejos,1,28,150,0,0,1.91837000600208
S69,simple,1,lejos,1,29,160,0,0,1.30713269999978
S69,simple,1,lejos,1,30,170,0,0,3.37266829899454
S69,simple,1,lejos,1,31,180,1,12,0.970761101998505
S69,simple,2,lejos,1,1,220,1,0,1.01087325200206
S69,simple,2,lejos,1,2,200,1,0,0.829020441000466
S69,simple,2,lejos,1,3,180,1,0,1.0315755470001
S69,simple,2,lejos,1,4,160,1,0,0.806123381000361
S69,simple,2,lejos,1,5,140,1,0,1.35833560500032
S69,simple,2,lejos,1,6,120,0,1,0.644449356994301
S69,simple,2,lejos,1,7,140,0,0,0.809737303003203
S69,simple,2,lejos,1,8,160,0,0,1.30833809400065
S69,simple,2,lejos,1,9,180,1,2,1.96769388599932
S69,simple,2,lejos,1,10,160,0,3,1.46484176199738
S69,simple,2,lejos,1,11,170,1,4,1.82909576000384
S69,simple,2,lejos,1,12,160,0,5,1.22786467900005
S69,simple,2,lejos,1,13,170,0,0,1.27819044199714
S69,simple,2,lejos,1,14,180,1,6,1.97131549300684
S69,simple,2,lejos,1,15,170,1,0,1.17261788599717
S69,simple,2,lejos,1,16,160,1,0,1.13769598000363
S69,simple,2,lejos,1,17,150,0,7,1.32608954199532
S69,simple,2,lejos,1,18,160,0,0,1.20958656400035
S69,simple,2,lejos,1,19,170,1,8,0.883478734001983
S69,simple,2,lejos,1,20,160,1,0,0.880861291996553
S69,simple,2,lejos,1,21,150,1,0,1.4110234960026
S69,simple,2,lejos,1,22,140,1,0,1.12165749899577
S69,simple,2,lejos,1,23,130,0,9,1.03027432200179
S69,simple,2,lejos,1,24,140,0,0,0.766893669999263
S69,simple,2,lejos,1,25,150,0,0,0.81464672400034
S69,simple,2,lejos,1,26,160,1,10,1.01941651800007
S69,simple,2,lejos,1,27,150,0,11,1.34387436399993
S69,simple,2,lejos,1,28,160,0,0,1.08408908300044
S69,simple,2,lejos,1,29,170,0,0,1.25742888899549
S69,simple,2,lejos,1,30,180,0,0,1.93763617399964
S69,simple,2,lejos,1,31,190,0,0,5.17668600500474
S69,simple,2,lejos,1,32,200,1,12,0.970902942004614
S69,simple,3,cerca,1,1,20,0,0,1.18745659499837
S69,simple,3,cerca,1,2,40,0,0,0.928916400000162
S69,simple,3,cerca,1,3,60,0,0,0.935062737000408
S69,simple,3,cerca,1,4,80,0,0,1.02380630499829
S69,simple,3,cerca,1,5,100,0,0,0.940368233001209
S69,simple,3,cerca,1,6,120,0,0,1.54092964700249
S69,simple,3,cerca,1,7,140,1,1,1.4348945640013
S69,simple,3,cerca,1,8,120,1,0,10.1164179380066
S69,simple,3,cerca,1,9,100,0,2,0.869196703002672
S69,simple,3,cerca,1,10,120,0,0,2.16883015899657
S69,simple,3,cerca,1,11,130,0,0,1.25722719400073
S69,simple,3,cerca,1,12,140,1,3,1.08145152399811
S69,simple,3,cerca,1,13,130,1,0,1.31814669699816
S69,simple,3,cerca,1,14,120,1,0,0.797623599995859
S69,simple,3,cerca,1,15,110,0,4,0.990423488998204
S69,simple,3,cerca,1,16,120,0,0,1.32586536400049
S69,simple,3,cerca,1,17,130,0,0,1.07998265799688
S69,simple,3,cerca,1,18,140,0,0,0.990659819995926
S69,simple,3,cerca,1,19,150,1,5,1.01053145599872
S69,simple,3,cerca,1,20,140,1,0,1.1543737930042
S69,simple,3,cerca,1,21,130,0,6,0.988837005999812
S69,simple,3,cerca,1,22,140,1,7,1.428334395001
S69,simple,3,cerca,1,23,130,0,8,1.44975433500076
S69,simple,3,cerca,1,24,140,0,0,1.09367219999694
S69,simple,3,cerca,1,25,150,1,9,1.9188824610028
S69,simple,3,cerca,1,26,140,0,10,1.57317754699761
S69,simple,3,cerca,1,27,150,0,0,1.36291994199564
S69,simple,3,cerca,1,28,160,1,11,1.16513152100379
S69,simple,3,cerca,1,29,150,0,12,1.90195720899646
S69,simple,4,cerca,1,1,20,0,0,1.34237699899677
S69,simple,4,cerca,1,2,40,0,0,0.806354596999881
S69,simple,4,cerca,1,3,60,0,0,1.36059329599811
S69,simple,4,cerca,1,4,80,0,0,1.39683491700271
S69,simple,4,cerca,1,5,100,0,0,1.21396785099932
S69,simple,4,cerca,1,6,120,1,1,1.31932487800077
S69,simple,4,cerca,1,7,100,1,0,1.33870468199893
S69,simple,4,cerca,1,8,80,0,2,0.838796047995856
S69,simple,4,cerca,1,9,100,0,0,1.37733650900191
S69,simple,4,cerca,1,10,110,0,0,1.13604660800047
S69,simple,4,cerca,1,11,120,0,0,1.24792282099952
S69,simple,4,cerca,1,12,130,1,3,1.0802580449963
S69,simple,4,cerca,1,13,120,0,4,1.97146790700208
S69,simple,4,cerca,1,14,130,1,5,1.9111767209979
S69,simple,4,cerca,1,15,120,0,6,1.39692451900191
S69,simple,4,cerca,1,16,130,1,7,0.992144521005685
S69,simple,4,cerca,1,17,120,1,0,1.77530522800225
S69,simple,4,cerca,1,18,110,0,8,1.16572812700178
S69,simple,4,cerca,1,19,120,0,0,1.81466275099956
S69,simple,4,cerca,1,20,130,1,9,0.867485334994853
S69,simple,4,cerca,1,21,120,0,10,1.16096789699805
S69,simple,4,cerca,1,22,130,0,0,1.47357115100021
S69,simple,4,cerca,1,23,140,1,11,1.16808314700029
S69,simple,4,cerca,1,24,130,0,12,2.49719640999683
S70,simple,1,lejos,1,1,220,0,0,0.749116029001016
S70,simple,1,lejos,1,2,220,0,0,0.709427825000603
S70,simple,1,lejos,1,3,220,1,1,0.447727626997221
S70,simple,1,lejos,1,4,200,1,0,0.538503870004206
S70,simple,1,lejos,1,5,180,0,2,0.482987871997466
S70,simple,1,lejos,1,6,200,1,3,0.578619384999911
S70,simple,1,lejos,1,7,190,0,4,0.340892797998094
S70,simple,1,lejos,1,8,200,1,5,0.446117291998235
S70,simple,1,lejos,1,9,190,0,6,0.394788489997154
S70,simple,1,lejos,1,10,200,1,7,0.341494437998335
S70,simple,1,lejos,1,11,190,0,8,0.232355936001113
S70,simple,1,lejos,1,12,200,1,9,0.377028126000369
S70,simple,1,lejos,1,13,190,0,10,0.412181840998528
S70,simple,1,lejos,1,14,200,0,0,0.566826008005592
S70,simple,1,lejos,1,15,210,0,0,0.776032535999548
S70,simple,1,lejos,1,16,220,0,0,0.342877720002434
S70,simple,1,lejos,1,17,220,0,0,0.417113538998819
S70,simple,1,lejos,1,18,220,0,0,0.365552777002449
S70,simple,1,lejos,1,19,220,1,11,0.40269033399818
S70,simple,1,lejos,1,20,210,1,0,0.377934267002274
S70,simple,1,lejos,1,21,200,0,12,0.588812027999666
S70,simple,2,cerca,1,1,20,0,0,0.448390908000874
S70,simple,2,cerca,1,2,40,0,0,0.385218588999123
S70,simple,2,cerca,1,3,60,0,0,0.386375902999134
S70,simple,2,cerca,1,4,80,0,0,0.357031186002132
S70,simple,2,cerca,1,5,100,0,0,0.278288276000239
S70,simple,2,cerca,1,6,120,0,0,0.86083780300396
S70,simple,2,cerca,1,7,140,1,1,0.384238330996595
S70,simple,2,cerca,1,8,120,1,0,0.555078295998101
S70,simple,2,cerca,1,9,100,0,2,0.436904253998364
S70,simple,2,cerca,1,10,120,1,3,0.437624105994473
S70,simple,2,cerca,1,11,110,0,4,0.566400105002685
S70,simple,2,cerca,1,12,120,0,0,0.524857558993972
S70,simple,2,cerca,1,13,130,0,0,0.418372549997002
S70,simple,2,cerca,1,14,140,1,5,0.597507164995477
S70,simple,2,cerca,1,15,130,1,0,0.371932490998006
S70,simple,2,cerca,1,16,120,1,0,0.385269186001096
S70,simple,2,cerca,1,17,110,0,6,0.456600650002656
S70,simple,2,cerca,1,18,120,0,0,0.743273200001568
S70,simple,2,cerca,1,19,130,0,0,0.660719092004001
S70,simple,2,cerca,1,20,140,0,0,0.388596581004094
S70,simple,2,cerca,1,21,150,1,7,0.547304884996265
S70,simple,2,cerca,1,22,140,1,0,0.643325110999285
S70,simple,2,cerca,1,23,130,1,0,0.394864138994308
S70,simple,2,cerca,1,24,120,0,8,0.629441086995939
S70,simple,2,cerca,1,25,130,0,0,0.355347303004237
S70,simple,2,cerca,1,26,140,1,9,0.634465708993957
S70,simple,2,cerca,1,27,130,0,10,0.589767878002021
S70,simple,2,cerca,1,28,140,0,0,0.710193222999806
S70,simple,2,cerca,1,29,150,0,0,0.490511816002254
S70,simple,2,cerca,1,30,160,1,11,0.517962844001886
S70,simple,2,cerca,1,31,150,0,12,0.610879476000264
S70,simple,3,lejos,1,1,220,1,0,0.507185391004896
S70,simple,3,lejos,1,2,200,0,1,0.596062461998372
S70,simple,3,lejos,1,3,220,1,2,0.315284973003145
S70,simple,3,lejos,1,4,200,1,0,0.526118909001525
S70,simple,3,lejos,1,5,190,1,0,0.455390569994051
S70,simple,3,lejos,1,6,180,1,0,0.51471908899839
S70,simple,3,lejos,1,7,170,0,3,0.449771394996787
S70,simple,3,lejos,1,8,180,0,0,0.50120110300486
S70,simple,3,lejos,1,9,190,0,0,0.468042222993972
S70,simple,3,lejos,1,10,200,0,0,0.42726188099914
S70,simple,3,lejos,1,11,210,0,0,0.458381543998257
S70,simple,3,lejos,1,12,220,1,4,0.503982130998338
S70,simple,3,lejos,1,13,210,0,5,0.2987928789953
S70,simple,3,lejos,1,14,220,0,0,0.745600806003495
S70,simple,3,lejos,1,15,220,0,0,0.378823547005595
S70,simple,3,lejos,1,16,220,0,0,0.406474834002438
S70,simple,3,lejos,1,17,220,1,6,0.587044380998123
S70,simple,3,lejos,1,18,210,0,7,0.58956566699635
S70,simple,3,lejos,1,19,220,0,0,0.350697704998311
S70,simple,3,lejos,1,20,220,0,0,0.541396688997338
S70,simple,3,lejos,1,21,220,0,0,0.451192011998501
S70,simple,3,lejos,1,22,220,0,0,0.644414517999394
S70,simple,3,lejos,1,23,220,1,8,0.529640876004123
S70,simple,3,lejos,1,24,210,0,9,0.433150008000666
S70,simple,3,lejos,1,25,220,0,0,0.644249472999945
S70,simple,3,lejos,1,26,220,1,10,0.576007401999959
S70,simple,3,lejos,1,27,210,0,11,0.449933527001122
S70,simple,3,lejos,1,28,220,1,12,0.319050038000569
S70,simple,4,cerca,1,1,20,0,0,0.280554010998458
S70,simple,4,cerca,1,2,40,0,0,0.321480888000224
S70,simple,4,cerca,1,3,60,0,0,0.278004666004563
S70,simple,4,cerca,1,4,80,0,0,0.224850785998569
S70,simple,4,cerca,1,5,100,0,0,0.271715975999541
S70,simple,4,cerca,1,6,120,0,0,0.261629866996373
S70,simple,4,cerca,1,7,140,1,1,0.354041498998413
S70,simple,4,cerca,1,8,120,0,2,0.296859606001817
S70,simple,4,cerca,1,9,140,0,0,0.46417283199844
S70,simple,4,cerca,1,10,150,0,0,0.505476521000674
S70,simple,4,cerca,1,11,160,0,0,0.522702180998749
S70,simple,4,cerca,1,12,170,0,0,0.334027754004637
S70,simple,4,cerca,1,13,180,0,0,0.271293755999068
S70,simple,4,cerca,1,14,190,1,3,0.549982580996584
S70,simple,4,cerca,1,15,180,1,0,0.52973871499853
S70,simple,4,cerca,1,16,170,1,0,0.457503716002975
S70,simple,4,cerca,1,17,160,1,0,0.348200351996638
S70,simple,4,cerca,1,18,150,1,0,0.479555650999828
S70,simple,4,cerca,1,19,140,0,4,0.458845239998482
S70,simple,4,cerca,1,20,150,0,0,0.554150427000422
S70,simple,4,cerca,1,21,160,0,0,0.324288582996815
S70,simple,4,cerca,1,22,170,0,0,0.490763958005118
S70,simple,4,cerca,1,23,180,0,0,0.450004475998867
S70,simple,4,cerca,1,24,190,0,0,0.423226065002382
S70,simple,4,cerca,1,25,200,0,0,0.519983256999694
S70,simple,4,cerca,1,26,210,0,0,0.483821287001774
S70,simple,4,cerca,1,27,220,1,5,0.395259589997295
S70,simple,4,cerca,1,28,210,0,6,0.535659599001519
S70,simple,4,cerca,1,29,220,1,7,0.701405540996348
S70,simple,4,cerca,1,30,210,1,0,0.506469377003668
S70,simple,4,cerca,1,31,200,0,8,0.465246938001656
S70,simple,4,cerca,1,32,210,1,9,0.626461141000618
S70,simple,4,cerca,1,33,200,1,0,0.41908037399844
S70,simple,4,cerca,1,34,190,1,0,0.491027602998656
S70,simple,4,cerca,1,35,180,1,0,0.443447167002887
S70,simple,4,cerca,1,36,170,1,0,0.416684575000545
S70,simple,4,cerca,1,37,160,1,0,0.383973867996247
S70,simple,4,cerca,1,38,150,1,0,0.428783631999977
S70,simple,4,cerca,1,39,140,0,10,0.65402914799779
S70,simple,4,cerca,1,40,150,0,0,0.543870205998246
S70,simple,4,cerca,1,41,160,0,0,0.383767297003942
S70,simple,4,cerca,1,42,170,0,0,0.296521497999493
S70,simple,4,cerca,1,43,180,0,0,0.469660283000849
S70,simple,4,cerca,1,44,190,0,0,0.288864419002493
S70,simple,4,cerca,1,45,200,0,0,0.292234546002874
S70,simple,4,cerca,1,46,210,0,0,0.424900005004019
S70,simple,4,cerca,1,47,220,0,0,0.456191811004828
S70,simple,4,cerca,1,48,220,1,11,0.591603339002177
S70,simple,4,cerca,1,49,210,1,0,0.46531860599498
S70,simple,4,cerca,1,50,200,1,0,0.439018911994935
S70,simple,4,cerca,1,51,190,1,0,0.471692343999166
S70,simple,4,cerca,1,52,180,1,0,0.385095011995872
S70,simple,4,cerca,1,53,170,1,0,0.506249147001654
S70,simple,4,cerca,1,54,160,0,12,0.502894382996601
S71,simple,1,lejos,1,1,220,1,0,0.774044777999734
S71,simple,1,lejos,1,2,200,1,0,0.683810438999899
S71,simple,1,lejos,1,3,180,1,0,0.649278946999857
S71,simple,1,lejos,1,4,160,1,0,0.700855729000068
S71,simple,1,lejos,1,5,140,1,0,0.737854087999949
S71,simple,1,lejos,1,6,120,0,1,0.877081849000206
S71,simple,1,lejos,1,7,140,1,2,1.03613526500021
S71,simple,1,lejos,1,8,120,1,0,1.38526203399988
S71,simple,1,lejos,1,9,110,0,3,1.64187287699997
S71,simple,1,lejos,1,10,120,0,0,1.1659458590002
S71,simple,1,lejos,1,11,130,0,0,1.52270971100006
S71,simple,1,lejos,1,12,140,0,0,1.46952901899976
S71,simple,1,lejos,1,13,150,1,4,2.43231996299983
S71,simple,1,lejos,1,14,140,1,0,1.74024256199982
S71,simple,1,lejos,1,15,130,1,0,1.81511568100041
S71,simple,1,lejos,1,16,120,0,5,1.18763184599993
S71,simple,1,lejos,1,17,130,1,6,1.357253012
