Subject,Target,Distance,Trial,Response,RT,OutlierDist,OutlierSubj
S01,8,121.681025776038,1,1,0.840653430000202,FALSE,FALSE
S01,8,121.681025776038,2,1,0.923459564999575,FALSE,FALSE
S01,4,69.8124291010485,3,0,0.984590101000322,FALSE,FALSE
S01,6,92.1674996131094,4,0,0.989890527000171,FALSE,FALSE
S01,5,80.2149426987335,5,0,0.924652636999781,FALSE,FALSE
S01,2,52.8795429782462,6,0,0.80474176000007,FALSE,FALSE
S01,4,69.8124291010485,7,0,0.782006813999942,FALSE,FALSE
S01,8,121.681025776038,8,1,0.893613373000335,FALSE,FALSE
S01,3,60.7589445683897,9,0,0.817967116000546,FALSE,FALSE
S01,3,60.7589445683897,10,0,0.829935536999983,FALSE,FALSE
S01,2,52.8795429782462,11,0,0.889572667000721,FALSE,FALSE
S01,10,160.645261030852,12,1,0.930327506999674,FALSE,FALSE
S01,5,80.2149426987335,13,0,1.01856879200022,FALSE,FALSE
S01,6,92.1674996131094,14,1,1.18881331100056,FALSE,FALSE
S01,7,105.901066548623,15,1,1.3722974809998,TRUE,TRUE
S01,3,60.7589445683897,16,0,0.939344323999649,FALSE,FALSE
S01,6,92.1674996131094,17,0,0.728360842999791,FALSE,FALSE
S01,4,69.8124291010485,18,0,0.779248458999973,FALSE,FALSE
S01,10,160.645261030852,19,1,0.815447089000372,FALSE,FALSE
S01,6,92.1674996131094,20,1,1.33630671599985,FALSE,TRUE
S01,10,160.645261030852,21,1,0.727941969999847,FALSE,FALSE
S01,8,121.681025776038,22,1,0.81700034700043,FALSE,FALSE
S01,5,80.2149426987335,23,0,0.730401994999738,FALSE,FALSE
S01,8,121.681025776038,24,1,0.721370655000101,FALSE,FALSE
S01,6,92.1674996131094,25,0,0.968189936000272,FALSE,FALSE
S01,6,92.1674996131094,26,0,1.39022735500021,FALSE,TRUE
S01,3,60.7589445683897,27,0,0.74062622800011,FALSE,FALSE
S01,5,80.2149426987335,28,0,1.01994083699992,FALSE,FALSE
S01,5,80.2149426987335,29,0,0.984160470999996,FALSE,FALSE
S01,3,60.7589445683897,30,0,0.725539729999582,FALSE,FALSE
S01,4,69.8124291010485,31,0,0.804896786000427,FALSE,FALSE
S01,7,105.901066548623,32,1,0.927283028000602,FALSE,FALSE
S01,1,46.0219657443318,33,0,0.968679763000182,FALSE,FALSE
S01,6,92.1674996131094,34,0,0.867536878000465,FALSE,FALSE
S01,2,52.8795429782462,35,0,0.893472605999705,FALSE,FALSE
S01,1,46.0219657443318,36,0,0.859607122999478,FALSE,FALSE
S01,5,80.2149426987335,37,0,1.02264586700039,FALSE,FALSE
S01,7,105.901066548623,38,1,0.938393626999641,FALSE,FALSE
S01,7,105.901066548623,39,1,0.863349362000008,FALSE,FALSE
S01,8,121.681025776038,40,1,0.748117739000008,FALSE,FALSE
S01,2,52.8795429782462,41,0,0.754511909999565,FALSE,FALSE
S01,3,60.7589445683897,42,0,0.954690773000038,FALSE,FALSE
S01,9,139.812303279409,43,1,0.737665575000392,FALSE,FALSE
S01,9,139.812303279409,44,1,0.686981125000784,FALSE,FALSE
S01,7,105.901066548623,45,1,0.851601510999899,FALSE,FALSE
S01,4,69.8124291010485,46,0,0.752775838000161,FALSE,FALSE
S01,5,80.2149426987335,47,0,0.756694787000015,FALSE,FALSE
S01,4,69.8124291010485,48,0,0.803597844000251,FALSE,FALSE
S01,4,69.8124291010485,49,0,0.95263174899992,FALSE,FALSE
S01,3,60.7589445683897,50,0,0.759271793999687,FALSE,FALSE
S01,7,105.901066548623,51,1,0.926713810000365,FALSE,FALSE
S01,6,92.1674996131094,52,1,0.920051324000269,FALSE,FALSE
S01,8,121.681025776038,53,1,0.795517360999838,FALSE,FALSE
S01,7,105.901066548623,54,1,0.763285168000039,TRUE,FALSE
S01,5,80.2149426987335,55,0,1.33268798800054,TRUE,TRUE
S01,9,139.812303279409,56,1,0.77470837599958,FALSE,FALSE
S01,3,60.7589445683897,57,0,0.732810958999835,FALSE,FALSE
S01,8,121.681025776038,58,1,0.7681251719996,FALSE,FALSE
S01,10,160.645261030852,59,1,0.794263830000091,FALSE,FALSE
S01,1,46.0219657443318,60,0,0.834755525000219,FALSE,FALSE
S01,7,105.901066548623,61,1,0.871500139000091,FALSE,FALSE
S01,9,139.812303279409,62,1,0.749624451000273,FALSE,FALSE
S01,4,69.8124291010485,63,0,0.894499590000123,FALSE,FALSE
S01,1,46.0219657443318,64,0,0.994738420999965,FALSE,FALSE
S01,8,121.681025776038,65,1,0.7367974280005,FALSE,FALSE
S02,6,92.1674996131094,1,0,0.913112101000024,FALSE,FALSE
S02,3,60.7589445683897,2,0,0.705858878000072,FALSE,FALSE
S02,4,69.8124291010485,3,0,0.77576970500013,FALSE,FALSE
S02,3,60.7589445683897,4,0,0.782750565000242,FALSE,FALSE
S02,3,60.7589445683897,5,0,0.790471347000221,FALSE,FALSE
S02,5,80.2149426987335,6,0,0.685170314000061,FALSE,FALSE
S02,7,105.901066548623,7,0,1.39342267099983,FALSE,FALSE
S02,3,60.7589445683897,8,0,0.682441746999757,FALSE,FALSE
S02,6,92.1674996131094,9,0,0.973869887000092,FALSE,FALSE
S02,7,105.901066548623,10,0,1.98229460799985,FALSE,TRUE
S02,8,121.681025776038,11,1,1.14565192300006,FALSE,FALSE
S02,3,60.7589445683897,12,0,0.744611081999665,FALSE,FALSE
S02,10,160.645261030852,13,1,0.937686457999916,TRUE,FALSE
S02,4,69.8124291010485,14,0,0.779303974999948,FALSE,FALSE
S02,5,80.2149426987335,15,0,0.881299017999936,FALSE,FALSE
S02,5,80.2149426987335,16,0,0.96986645700008,FALSE,FALSE
S02,3,60.7589445683897,17,0,0.900720456000272,FALSE,FALSE
S02,2,52.8795429782462,18,0,0.894805730999906,FALSE,FALSE
S02,7,105.901066548623,19,1,1.46844355900021,FALSE,FALSE
S02,7,105.901066548623,20,1,0.886635220999779,FALSE,FALSE
S02,1,46.0219657443318,21,0,0.940565017000154,FALSE,FALSE
S02,3,60.7589445683897,22,0,0.827818879000006,FALSE,FALSE
S02,7,105.901066548623,23,1,1.70249479299991,FALSE,TRUE
S02,6,92.1674996131094,24,0,1.30372382699989,TRUE,FALSE
S02,8,121.681025776038,25,1,0.838496563999797,FALSE,FALSE
S02,5,80.2149426987335,26,0,1.10021525799993,FALSE,FALSE
S02,9,139.812303279409,27,1,0.551954013999875,FALSE,FALSE
S02,8,121.681025776038,28,1,0.633922429999984,FALSE,FALSE
S02,4,69.8124291010485,29,0,0.769529716999841,FALSE,FALSE
S02,9,139.812303279409,30,1,0.697186172999864,FALSE,FALSE
S02,7,105.901066548623,31,1,3.87025835199984,TRUE,TRUE
S02,5,80.2149426987335,32,0,0.64523071900021,FALSE,FALSE
S02,6,92.1674996131094,33,0,0.958363142000053,FALSE,FALSE
S02,6,92.1674996131094,34,0,0.894156275999649,FALSE,FALSE
S02,5,80.2149426987335,35,0,0.586368473000221,FALSE,FALSE
S02,4,69.8124291010485,36,0,0.682440175000011,FALSE,FALSE
S02,6,92.1674996131094,37,0,0.789127871000346,FALSE,FALSE
S02,10,160.645261030852,38,1,0.737363772999743,FALSE,FALSE
S02,3,60.7589445683897,39,0,0.520497187000274,TRUE,FALSE
S02,8,121.681025776038,40,1,1.27133140199976,FALSE,FALSE
S02,6,92.1674996131094,41,0,0.838781680000011,FALSE,FALSE
S02,4,69.8124291010485,42,0,0.607109089999994,FALSE,FALSE
S02,7,105.901066548623,43,1,1.13011746799975,FALSE,FALSE
S02,4,69.8124291010485,44,0,0.77850891099979,FALSE,FALSE
S02,4,69.8124291010485,45,0,1.24089254899991,TRUE,FALSE
S02,8,121.681025776038,46,1,0.717230494000432,FALSE,FALSE
S02,9,139.812303279409,47,1,0.762241583999639,FALSE,FALSE
S02,5,80.2149426987335,48,0,0.699179856999763,FALSE,FALSE
S02,8,121.681025776038,49,1,0.714222400000835,FALSE,FALSE
S02,8,121.681025776038,50,1,0.920806572000402,FALSE,FALSE
S02,7,105.901066548623,51,1,1.34994135300076,FALSE,FALSE
S02,9,139.812303279409,52,1,0.742063128000154,FALSE,FALSE
S02,10,160.645261030852,53,1,0.729604524000024,FALSE,FALSE
S02,6,92.1674996131094,54,0,0.634639376999985,FALSE,FALSE
S02,2,52.8795429782462,55,0,0.629920067999592,FALSE,FALSE
S02,4,69.8124291010485,56,0,0.691971630999433,FALSE,FALSE
S02,1,46.0219657443318,57,0,0.791703167999913,FALSE,FALSE
S02,10,160.645261030852,58,1,0.717694729999494,FALSE,FALSE
S02,2,52.8795429782462,59,0,0.586715757000093,FALSE,FALSE
S02,8,121.681025776038,60,1,0.68461175199991,FALSE,FALSE
S02,1,46.0219657443318,61,0,0.71961127800023,FALSE,FALSE
S02,5,80.2149426987335,62,0,1.00159355899996,FALSE,FALSE
S02,2,52.8795429782462,63,0,0.682603494999967,FALSE,FALSE
S02,1,46.0219657443318,64,0,0.528058535999662,FALSE,FALSE
S02,6,92.1674996131094,65,0,0.763362350999159,FALSE,FALSE
S03,5,80.2149426987335,1,0,1.74888256200029,FALSE,FALSE
S03,2,52.8795429782462,2,0,0.659609120999448,FALSE,FALSE
S03,3,60.7589445683897,3,0,0.689446799000507,FALSE,FALSE
S03,8,121.681025776038,4,1,1.84597273700092,FALSE,FALSE
S03,9,139.812303279409,5,1,0.616718543000388,FALSE,FALSE
S03,3,60.7589445683897,6,0,0.765982954000719,FALSE,FALSE
S03,6,92.1674996131094,7,1,0.473523247999765,FALSE,FALSE
S03,4,69.8124291010485,8,1,1.16649644799872,FALSE,FALSE
S03,4,69.8124291010485,9,0,1.25931820499864,FALSE,FALSE
S03,10,160.645261030852,10,1,0.62176017999991,FALSE,FALSE
S03,4,69.8124291010485,11,1,1.09223293600007,FALSE,FALSE
S03,1,46.0219657443318,12,0,0.501067245999366,FALSE,FALSE
S03,8,121.681025776038,13,1,0.55319434500052,FALSE,FALSE
S03,1,46.0219657443318,14,0,0.701306450000629,FALSE,FALSE
S03,1,46.0219657443318,15,0,0.54635426599998,FALSE,FALSE
S03,5,80.2149426987335,16,0,1.22615942199991,FALSE,FALSE
S03,3,60.7589445683897,17,0,0.556240563999381,FALSE,FALSE
S03,3,60.7589445683897,18,0,0.70831884799918,FALSE,FALSE
S03,4,69.8124291010485,19,0,0.684095807999256,TRUE,FALSE
S03,5,80.2149426987335,20,0,0.729911441998411,FALSE,FALSE
S03,5,80.2149426987335,21,0,1.25451601199893,FALSE,FALSE
S03,4,69.8124291010485,22,0,0.959196842000893,FALSE,FALSE
S03,3,60.7589445683897,23,0,0.754182893000689,FALSE,FALSE
S03,1,46.0219657443318,24,0,0.637596689999555,FALSE,FALSE
S03,9,139.812303279409,25,1,0.62797326799955,FALSE,FALSE
S03,7,105.901066548623,26,1,0.482589057999576,FALSE,FALSE
S03,6,92.1674996131094,27,1,0.427725155001099,FALSE,FALSE
S03,2,52.8795429782462,28,0,0.810563725000975,FALSE,FALSE
S03,6,92.1674996131094,29,1,0.542345739000666,FALSE,FALSE
S03,6,92.1674996131094,30,1,0.630509116001122,FALSE,FALSE
S03,3,60.7589445683897,31,0,0.852463142999113,FALSE,FALSE
S03,7,105.901066548623,32,1,0.51284140000098,FALSE,FALSE
S03,5,80.2149426987335,33,1,0.824298176001321,FALSE,FALSE
S03,10,160.645261030852,34,1,0.493540301000394,FALSE,FALSE
S03,5,80.2149426987335,35,0,1.15655193099883,FALSE,FALSE
S03,8,121.681025776038,36,1,0.376990376000322,FALSE,FALSE
S03,8,121.681025776038,37,1,0.48434436199932,FALSE,FALSE
S03,4,69.8124291010485,38,0,0.867744155000764,FALSE,FALSE
S03,8,121.681025776038,39,1,0.348838865000289,FALSE,FALSE
S03,6,92.1674996131094,40,1,0.73434774999987,FALSE,FALSE
S03,7,105.901066548623,41,1,0.585399542000232,FALSE,FALSE
S03,7,105.901066548623,42,1,0.446163492000778,FALSE,FALSE
S03,8,121.681025776038,43,0,1.76509424200049,FALSE,FALSE
S03,5,80.2149426987335,44,0,0.996871831001044,FALSE,FALSE
S03,6,92.1674996131094,45,1,1.05285187799927,FALSE,FALSE
S03,8,121.681025776038,46,1,0.660050565000347,FALSE,FALSE
S03,7,105.901066548623,47,1,0.687786631999188,FALSE,FALSE
S03,3,60.7589445683897,48,0,0.625660367000819,FALSE,FALSE
S03,10,160.645261030852,49,1,0.543900505999773,FALSE,FALSE
S03,9,139.812303279409,50,1,0.590909470000042,FALSE,FALSE
S03,6,92.1674996131094,51,1,0.469910551000794,FALSE,FALSE
S03,10,160.645261030852,52,1,0.475033324000833,FALSE,FALSE
S03,8,121.681025776038,53,1,1.04819842399957,FALSE,FALSE
S03,3,60.7589445683897,54,0,0.620881205999467,FALSE,FALSE
S03,5,80.2149426987335,55,0,1.26872294399982,FALSE,FALSE
S03,7,105.901066548623,56,1,0.680866407999929,FALSE,FALSE
S03,9,139.812303279409,57,1,0.657391402999565,FALSE,FALSE
S03,2,52.8795429782462,58,0,0.818850441000905,FALSE,FALSE
S03,7,105.901066548623,59,1,0.818006842999239,FALSE,FALSE
S03,2,52.8795429782462,60,0,0.580686949000665,FALSE,FALSE
S03,4,69.8124291010485,61,0,1.13005675000022,FALSE,FALSE
S03,7,105.901066548623,62,1,0.569629888999771,FALSE,FALSE
S03,4,69.8124291010485,63,0,1.07614254500004,FALSE,FALSE
S03,6,92.1674996131094,64,1,0.803725007999674,FALSE,FALSE
S03,5,80.2149426987335,65,0,1.16006869800003,FALSE,FALSE
S04,8,121.681025776038,1,1,0.852934865999487,FALSE,FALSE
S04,5,80.2149426987335,2,0,0.873737404999702,FALSE,FALSE
S04,3,60.7589445683897,3,0,1.00143018699964,FALSE,FALSE
S04,7,105.901066548623,4,1,1.63129169700005,FALSE,FALSE
S04,6,92.1674996131094,5,1,1.00231655800053,FALSE,FALSE
S04,10,160.645261030852,6,1,0.641936788000748,FALSE,FALSE
S04,4,69.8124291010485,7,0,0.933676998998635,FALSE,FALSE
S04,7,105.901066548623,8,0,2.1034637140001,FALSE,TRUE
S04,7,105.901066548623,9,1,1.46915199299838,FALSE,FALSE
S04,5,80.2149426987335,10,0,0.68559445900064,FALSE,FALSE
S04,4,69.8124291010485,11,0,0.764027520999662,FALSE,FALSE
S04,3,60.7589445683897,12,0,0.720453374000499,FALSE,FALSE
S04,3,60.7589445683897,13,0,0.966665852000006,FALSE,FALSE
S04,6,92.1674996131094,14,1,1.28869198699977,FALSE,FALSE
S04,4,69.8124291010485,15,0,1.22766007199971,FALSE,FALSE
S04,5,80.2149426987335,16,1,0.985376022999844,FALSE,FALSE
S04,8,121.681025776038,17,1,0.943331835998833,FALSE,FALSE
S04,3,60.7589445683897,18,0,0.706109697999636,FALSE,FALSE
S04,1,46.0219657443318,19,0,1.6505808210004,FALSE,FALSE
S04,5,80.2149426987335,20,0,1.40417911699842,FALSE,FALSE
S04,6,92.1674996131094,21,1,1.09569409799951,FALSE,FALSE
S04,3,60.7589445683897,22,0,0.789466996999181,FALSE,FALSE
S04,5,80.2149426987335,23,0,1.07539870599976,FALSE,FALSE
S04,5,80.2149426987335,24,0,1.51639061100104,FALSE,FALSE
S04,10,160.645261030852,25,1,0.692068334999931,FALSE,FALSE
S04,3,60.7589445683897,26,0,0.694503861999692,FALSE,FALSE
S04,8,121.681025776038,27,1,1.06308538799931,FALSE,FALSE
S04,2,52.8795429782462,28,0,0.778487216999565,FALSE,FALSE
S04,3,60.7589445683897,29,0,0.742586680000386,FALSE,FALSE
S04,9,139.812303279409,30,1,0.967647014998875,FALSE,FALSE
S04,5,80.2149426987335,31,0,1.59900747900065,FALSE,FALSE
S04,1,46.0219657443318,32,0,0.873476740000115,FALSE,FALSE
S04,8,121.681025776038,33,1,0.827540122998471,FALSE,FALSE
S04,7,105.901066548623,34,1,1.28235293600119,FALSE,FALSE
S04,8,121.681025776038,35,1,0.821845585998744,FALSE,FALSE
S04,8,121.681025776038,36,1,0.812098340000375,FALSE,FALSE
S04,6,92.1674996131094,37,1,1.37309349399948,FALSE,FALSE
S04,5,80.2149426987335,38,0,0.719328950999625,FALSE,FALSE
S04,7,105.901066548623,39,0,0.658093328000177,FALSE,FALSE
S04,3,60.7589445683897,40,0,0.715923687999748,FALSE,FALSE
S04,4,69.8124291010485,41,0,0.773079448999852,FALSE,FALSE
S04,9,139.812303279409,42,1,0.850478644000759,FALSE,FALSE
S04,7,105.901066548623,43,1,0.834847967000314,FALSE,FALSE
S04,2,52.8795429782462,44,0,0.7887882490013,FALSE,FALSE
S04,7,105.901066548623,45,1,0.753797766999924,FALSE,FALSE
S04,10,160.645261030852,46,1,0.835329326000647,FALSE,FALSE
S04,1,46.0219657443318,47,0,1.6204624539987,FALSE,FALSE
S04,2,52.8795429782462,48,0,0.847528004998821,FALSE,FALSE
S04,9,139.812303279409,49,1,0.726131855000858,FALSE,FALSE
S04,9,139.812303279409,50,1,0.635190891000093,FALSE,FALSE
S04,6,92.1674996131094,51,1,1.46148841800095,FALSE,FALSE
S04,6,92.1674996131094,52,1,0.987890950000292,FALSE,FALSE
S04,2,52.8795429782462,53,0,0.893224363000627,FALSE,FALSE
S04,4,69.8124291010485,54,0,0.978751959999499,FALSE,FALSE
S04,6,92.1674996131094,55,0,0.974709277001239,FALSE,FALSE
S04,7,105.901066548623,56,1,0.879729235999548,FALSE,FALSE
S04,4,69.8124291010485,57,0,0.802079696999499,FALSE,FALSE
S04,4,69.8124291010485,58,0,3.85827862099904,TRUE,TRUE
S04,1,46.0219657443318,59,0,0.673235634998491,FALSE,FALSE
S04,6,92.1674996131094,60,0,1.80223479699998,FALSE,FALSE
S04,8,121.681025776038,61,1,0.757888580999861,FALSE,FALSE
S04,10,160.645261030852,62,1,0.633939524999732,FALSE,FALSE
S04,8,121.681025776038,63,1,0.877523721999751,FALSE,FALSE
S04,4,69.8124291010485,64,0,1.33594181999979,FALSE,FALSE
S04,8,121.681025776038,65,1,0.932365999000467,FALSE,FALSE
S05,8,121.681025776038,1,1,1.10940846400081,FALSE,FALSE
S05,7,105.901066548623,2,1,1.04120900400085,FALSE,FALSE
S05,5,80.2149426987335,3,1,0.881185342999743,FALSE,FALSE
S05,3,60.7589445683897,4,1,0.807360662000065,FALSE,FALSE
S05,2,52.8795429782462,5,1,1.00148251100109,FALSE,FALSE
S05,3,60.7589445683897,6,1,0.981633080000393,FALSE,FALSE
S05,3,60.7589445683897,7,1,1.02307981800004,FALSE,FALSE
S05,6,92.1674996131094,8,1,1.0207871719994701,FALSE,FALSE
S05,10,160.645261030852,9,1,0.947541810000985,FALSE,FALSE
S05,6,92.1674996131094,10,1,0.999526124000113,FALSE,FALSE
S05,8,121.681025776038,11,1,0.948074554000414,FALSE,FALSE
S05,3,60.7589445683897,12,1,1.20039564599938,FALSE,FALSE
S05,9,139.812303279409,13,1,0.974012813001536,FALSE,FALSE
S05,5,80.2149426987335,14,1,1.16740040100012,FALSE,FALSE
S05,8,121.681025776038,15,1,1.23841340299987,FALSE,FALSE
S05,5,80.2149426987335,16,1,0.828233497999463,FALSE,FALSE
S05,4,69.8124291010485,17,1,1.09367076799936,FALSE,FALSE
S05,9,139.812303279409,18,1,0.796842349000144,FALSE,FALSE
S05,8,121.681025776038,19,1,0.937139349000063,FALSE,FALSE
S05,10,160.645261030852,20,1,0.827787543999875,FALSE,FALSE
S05,3,60.7589445683897,21,1,1.23465571300039,FALSE,FALSE
S05,7,105.901066548623,22,1,0.732380850000482,FALSE,FALSE
S05,3,60.7589445683897,23,0,1.8767636449993,FALSE,FALSE
S05,5,80.2149426987335,24,1,0.838999791998503,FALSE,FALSE
S05,6,92.1674996131094,25,1,1.03979412199988,FALSE,FALSE
S05,4,69.8124291010485,26,1,0.868641704999391,TRUE,FALSE
S05,5,80.2149426987335,27,1,0.992240895999203,FALSE,FALSE
S05,5,80.2149426987335,28,1,0.745851280998977,FALSE,FALSE
S05,10,160.645261030852,29,1,0.755971648000923,FALSE,FALSE
S05,1,46.0219657443318,30,1,0.997849048000717,FALSE,FALSE
S05,4,69.8124291010485,31,1,1.23894027899951,FALSE,FALSE
S05,3,60.7589445683897,32,1,2.23809566300042,TRUE,TRUE
S05,4,69.8124291010485,33,1,1.17948539200006,FALSE,FALSE
S05,2,52.8795429782462,34,0,1.06131701099912,FALSE,FALSE
S05,8,121.681025776038,35,1,0.829697044999193,FALSE,FALSE
S05,4,69.8124291010485,36,0,1.17211780499929,FALSE,FALSE
S05,6,92.1674996131094,37,1,1.41632756500076,FALSE,FALSE
S05,6,92.1674996131094,38,1,1.46911933899901,FALSE,FALSE
S05,5,80.2149426987335,39,1,1.50574168999992,FALSE,FALSE
S05,7,105.901066548623,40,0,1.39116450599977,FALSE,FALSE
S05,4,69.8124291010485,41,0,1.16407056900061,FALSE,FALSE
S05,7,105.901066548623,42,1,0.886404273000153,FALSE,FALSE
S05,2,52.8795429782462,43,0,1.28226204800012,FALSE,FALSE
S05,6,92.1674996131094,44,1,1.60965856300027,FALSE,FALSE
S05,1,46.0219657443318,45,0,1.01400248400023,FALSE,FALSE
S05,9,139.812303279409,46,1,0.763160787999368,FALSE,FALSE
S05,9,139.812303279409,47,1,0.962004957000318,FALSE,FALSE
S05,7,105.901066548623,48,1,0.948106327999994,FALSE,FALSE
S05,8,121.681025776038,49,1,1.19299164400036,FALSE,FALSE
S05,6,92.1674996131094,50,1,1.04597050200027,FALSE,FALSE
S05,7,105.901066548623,51,1,0.789393498998834,FALSE,FALSE
S05,7,105.901066548623,52,1,1.35864336900158,FALSE,FALSE
S05,6,92.1674996131094,53,1,2.26884686799895,FALSE,TRUE
S05,3,60.7589445683897,54,0,1.09260090700081,FALSE,FALSE
S05,8,121.681025776038,55,1,0.769850381000651,FALSE,FALSE
S05,2,52.8795429782462,56,0,0.767248973001188,FALSE,FALSE
S05,5,80.2149426987335,57,0,1.27712432499902,FALSE,FALSE
S05,1,46.0219657443318,58,0,0.795995589998711,FALSE,FALSE
S05,1,46.0219657443318,59,0,0.870131978001154,FALSE,FALSE
S05,7,105.901066548623,60,1,2.92372265199992,TRUE,TRUE
S05,10,160.645261030852,61,1,0.782576831999904,FALSE,FALSE
S05,4,69.8124291010485,62,0,1.84212849799951,TRUE,FALSE
S05,4,69.8124291010485,63,0,2.7895042709988,TRUE,TRUE
S05,8,121.681025776038,64,1,0.989793867000117,FALSE,FALSE
S05,8,121.681025776038,65,1,0.98705297000015,FALSE,FALSE
S06,5,80.2149426987335,1,0,1.1398469650012,FALSE,FALSE
S06,4,69.8124291010485,2,0,0.950253925002471,FALSE,FALSE
S06,7,105.901066548623,3,0,1.22108324100191,FALSE,FALSE
S06,8,121.681025776038,4,1,1.3204092800006,FALSE,FALSE
S06,7,105.901066548623,5,1,0.838389105003444,TRUE,FALSE
S06,9,139.812303279409,6,1,0.769117222997011,FALSE,FALSE
S06,4,69.8124291010485,7,0,1.03476026499993,FALSE,FALSE
S06,3,60.7589445683897,8,0,0.808586278002622,FALSE,FALSE
S06,6,92.1674996131094,9,0,1.01748423800018,FALSE,FALSE
S06,8,121.681025776038,10,1,1.125752887001,FALSE,FALSE
S06,8,121.681025776038,11,1,0.929745422999986,FALSE,FALSE
S06,1,46.0219657443318,12,0,0.910186106000765,FALSE,FALSE
S06,1,46.0219657443318,13,0,0.964535283997975,FALSE,FALSE
S06,4,69.8124291010485,14,0,0.974042357000144,FALSE,FALSE
S06,4,69.8124291010485,15,0,0.805652318002103,FALSE,FALSE
S06,5,80.2149426987335,16,0,0.94620733299962,FALSE,FALSE
S06,3,60.7589445683897,17,0,0.945503374001419,FALSE,FALSE
S06,7,105.901066548623,18,1,1.33990848900066,FALSE,FALSE
S06,4,69.8124291010485,19,0,0.918326581999281,FALSE,FALSE
S06,6,92.1674996131094,20,0,1.2455578529989,FALSE,FALSE
S06,6,92.1674996131094,21,0,1.1734500800012,FALSE,FALSE
S06,2,52.8795429782462,22,0,0.882422525002767,FALSE,FALSE
S06,8,121.681025776038,23,1,0.989569825000217,FALSE,FALSE
S06,6,92.1674996131094,24,0,1.0238837020006,FALSE,FALSE
S06,5,80.2149426987335,25,0,0.892051007998816,FALSE,FALSE
S06,6,92.1674996131094,26,0,1.06994846100133,FALSE,FALSE
S06,7,105.901066548623,27,1,1.1610987109998,FALSE,FALSE
S06,5,80.2149426987335,28,0,1.05957746499917,FALSE,FALSE
S06,8,121.681025776038,29,1,1.02933366399884,FALSE,FALSE
S06,3,60.7589445683897,30,0,0.917646443998819,FALSE,FALSE
S06,1,46.0219657443318,31,0,0.773319488002016,FALSE,FALSE
S06,6,92.1674996131094,32,0,1.08578675399986,FALSE,FALSE
S06,10,160.645261030852,33,1,0.72362612699726,FALSE,FALSE
S06,10,160.645261030852,34,1,1.04068376199939,FALSE,FALSE
S06,6,92.1674996131094,35,0,1.11990538099781,FALSE,FALSE
S06,4,69.8124291010485,36,0,0.83366011399994,FALSE,FALSE
S06,2,52.8795429782462,37,0,0.801074956998491,FALSE,FALSE
S06,9,139.812303279409,38,1,1.32292931800112,FALSE,FALSE
S06,5,80.2149426987335,39,0,1.22765730500032,FALSE,FALSE
S06,5,80.2149426987335,40,0,1.49930673600102,FALSE,FALSE
S06,2,52.8795429782462,41,0,0.910862754000846,FALSE,FALSE
S06,3,60.7589445683897,42,0,0.884072495999135,FALSE,FALSE
S06,8,121.681025776038,43,1,1.19490523199784,FALSE,FALSE
S06,4,69.8124291010485,44,0,0.778115746998083,FALSE,FALSE
S06,10,160.645261030852,45,1,0.849550573999295,FALSE,FALSE
S06,3,60.7589445683897,46,0,0.919022770998708,FALSE,FALSE
S06,3,60.7589445683897,47,0,0.857305208999605,FALSE,FALSE
S06,4,69.8124291010485,48,0,0.951245486998232,FALSE,FALSE
S06,8,121.681025776038,49,1,0.883685564000189,FALSE,FALSE
S06,9,139.812303279409,50,1,0.978105000998767,FALSE,FALSE
S06,8,121.681025776038,51,1,1.07539889499822,FALSE,FALSE
S06,5,80.2149426987335,52,0,0.91479832999903,FALSE,FALSE
S06,10,160.645261030852,53,1,0.907202587997745,FALSE,FALSE
S06,7,105.901066548623,54,0,1.24099987299996,FALSE,FALSE
S06,2,52.8795429782462,55,0,1.00179518399818,FALSE,FALSE
S06,5,80.2149426987335,56,0,1.03389401900131,FALSE,FALSE
S06,7,105.901066548623,57,1,1.4305388190005,FALSE,FALSE
S06,3,60.7589445683897,58,0,1.04191048800203,FALSE,FALSE
S06,9,139.812303279409,59,1,0.801782606999041,FALSE,FALSE
S06,1,46.0219657443318,60,0,0.80106018999868,FALSE,FALSE
S06,7,105.901066548623,61,0,1.3082112589982,FALSE,FALSE
S06,7,105.901066548623,62,1,1.24312999899848,FALSE,FALSE
S06,6,92.1674996131094,63,1,1.48944259400014,TRUE,FALSE
S06,3,60.7589445683897,64,0,0.626215391999722,TRUE,FALSE
S06,5,80.2149426987335,65,0,1.11709682500077,FALSE,FALSE
S07,3,60.7589445683897,1,0,0.864623767000012,FALSE,FALSE
S07,10,160.645261030852,2,1,1.04753469799834,FALSE,FALSE
S07,8,121.681025776038,3,1,1.1025337760002,FALSE,FALSE
S07,3,60.7589445683897,4,0,0.71215658300207,FALSE,FALSE
S07,4,69.8124291010485,5,0,0.730173157000536,FALSE,FALSE
S07,6,92.1674996131094,6,0,1.00185980600145,FALSE,FALSE
S07,2,52.8795429782462,7,0,0.917105323002033,FALSE,FALSE
S07,3,60.7589445683897,8,0,0.799421350999182,FALSE,FALSE
S07,8,121.681025776038,9,1,1.01204147200042,FALSE,FALSE
S07,4,69.8124291010485,10,0,1.26990631599983,TRUE,FALSE
S07,8,121.681025776038,11,1,0.920908228999906,FALSE,FALSE
S07,8,121.681025776038,12,1,1.04998090300069,FALSE,FALSE
S07,1,46.0219657443318,13,0,0.886319450000883,FALSE,FALSE
S07,9,139.812303279409,14,1,0.960881583003356,FALSE,FALSE
S07,9,139.812303279409,15,1,0.935520263999933,FALSE,FALSE
S07,7,105.901066548623,16,0,1.10305390299982,FALSE,FALSE
S07,7,105.901066548623,17,0,1.33275934799894,FALSE,FALSE
S07,8,121.681025776038,18,0,1.74836437499835,FALSE,FALSE
S07,6,92.1674996131094,19,0,1.29230325800017,FALSE,FALSE
S07,10,160.645261030852,20,1,0.927219984998374,FALSE,FALSE
S07,5,80.2149426987335,21,0,0.94336480799756794,FALSE,FALSE
S07,9,139.812303279409,22,1,0.742458532000455,FALSE,FALSE
S07,2,52.8795429782462,23,0,0.869457231001434,FALSE,FALSE
S07,6,92.1674996131094,24,0,0.919523182001285,FALSE,FALSE
S07,5,80.2149426987335,25,0,0.85738117299843,FALSE,FALSE
S07,6,92.1674996131094,26,0,0.987779587998375,FALSE,FALSE
S07,6,92.1674996131094,27,0,0.944996913000068,FALSE,FALSE
S07,7,105.901066548623,28,0,1.12191926100058,FALSE,FALSE
S07,4,69.8124291010485,29,0,0.856464857999526,FALSE,FALSE
S07,1,46.0219657443318,30,0,0.805788197998481,FALSE,FALSE
S07,7,105.901066548623,31,0,1.99790999900142,FALSE,FALSE
S07,10,160.645261030852,32,1,0.914018159997795,FALSE,FALSE
S07,6,92.1674996131094,33,0,1.55872678699961,FALSE,FALSE
S07,4,69.8124291010485,34,0,0.906188442000712,FALSE,FALSE
S07,9,139.812303279409,35,1,1.17013910800233,FALSE,FALSE
S07,4,69.8124291010485,36,0,0.911975696999434,FALSE,FALSE
S07,7,105.901066548623,37,0,1.47416862400132,FALSE,FALSE
S07,3,60.7589445683897,38,0,0.813916373997927,FALSE,FALSE
S07,7,105.901066548623,39,0,1.17985560300076,FALSE,FALSE
S07,6,92.1674996131094,40,0,0.89879727600055,FALSE,FALSE
S07,8,121.681025776038,41,1,2.0267503110008,TRUE,FALSE
S07,7,105.901066548623,42,0,1.73928283100031,FALSE,FALSE
S07,5,80.2149426987335,43,0,0.947564775000501,FALSE,FALSE
S07,4,69.8124291010485,44,0,0.875068473997089,FALSE,FALSE
S07,4,69.8124291010485,45,0,0.76663209400067,FALSE,FALSE
S07,5,80.2149426987335,46,0,1.26710145200195,FALSE,FALSE
S07,8,121.681025776038,47,1,1.23959205099891,FALSE,FALSE
S07,5,80.2149426987335,48,0,1.16143730899785,FALSE,FALSE
S07,5,80.2149426987335,49,1,1.63830059999964,FALSE,FALSE
S07,1,46.0219657443318,50,0,0.772269126999163,FALSE,FALSE
S07,2,52.8795429782462,51,0,0.813990205002483,FALSE,FALSE
S07,4,69.8124291010485,52,0,1.12874534799994,FALSE,FALSE
S07,3,60.7589445683897,53,0,0.970758999999816,FALSE,FALSE
S07,3,60.7589445683897,54,0,1.17651317099808,TRUE,FALSE
S07,2,52.8795429782462,55,0,0.912986184997862,FALSE,FALSE
S07,5,80.2149426987335,56,0,1.90377389800051,FALSE,FALSE
S07,7,105.901066548623,57,0,1.28919931199925,FALSE,FALSE
S07,1,46.0219657443318,58,0,0.732777007997356,FALSE,FALSE
S07,8,121.681025776038,59,1,1.23388813700149,FALSE,FALSE
S07,10,160.645261030852,60,1,0.970283464001113,FALSE,FALSE
S07,3,60.7589445683897,61,0,0.924152022998896,FALSE,FALSE
S07,6,92.1674996131094,62,0,2.17019372300274,FALSE,TRUE
S07,3,60.7589445683897,63,0,0.88343240299946,FALSE,FALSE
S07,5,80.2149426987335,64,0,1.96752757300055,FALSE,FALSE
S07,3,60.7589445683897,65,0,0.708789477997925,FALSE,FALSE
S08,8,121.681025776038,1,0,1.29008416300002,FALSE,FALSE
S08,4,69.8124291010485,2,0,0.828026528000009,FALSE,FALSE
S08,7,105.901066548623,3,0,0.620760386999962,FALSE,FALSE
S08,5,80.2149426987335,4,0,0.815604128000018,FALSE,FALSE
S08,1,46.0219657443318,5,0,1.05762865500003,TRUE,FALSE
S08,6,92.1674996131094,6,0,0.804783734000011,FALSE,FALSE
S08,3,60.7589445683897,7,0,0.917729775999987,FALSE,FALSE
S08,5,80.2149426987335,8,0,1.24784980499999,TRUE,FALSE
S08,10,160.645261030852,9,1,0.936086093000029,FALSE,FALSE
S08,3,60.7589445683897,10,0,0.755399625999985,FALSE,FALSE
S08,6,92.1674996131094,11,0,1.17090475600003,FALSE,FALSE
S08,7,105.901066548623,12,0,1.43764965100002,FALSE,FALSE
S08,6,92.1674996131094,13,0,1.73951344599993,FALSE,TRUE
S08,9,139.812303279409,14,1,0.664449995000041,FALSE,FALSE
S08,5,80.2149426987335,15,0,0.788882940000008,FALSE,FALSE
S08,8,121.681025776038,16,1,0.827234410999949,FALSE,FALSE
S08,10,160.645261030852,17,1,0.749955473,FALSE,FALSE
S08,6,92.1674996131094,18,0,0.997672437999995,FALSE,FALSE
S08,2,52.8795429782462,19,0,0.679477855000073,TRUE,FALSE
S08,3,60.7589445683897,20,0,1.15534661200002,TRUE,FALSE
S08,1,46.0219657443318,21,0,0.664926002000016,FALSE,FALSE
S08,10,160.645261030852,22,1,0.724719993000008,FALSE,FALSE
S08,1,46.0219657443318,23,0,0.671372567000049,FALSE,FALSE
S08,8,121.681025776038,24,1,0.905544905000056,FALSE,FALSE
S08,5,80.2149426987335,25,0,0.69628104800006,FALSE,FALSE
S08,3,60.7589445683897,26,0,0.661913549000019,FALSE,FALSE
S08,4,69.8124291010485,27,0,0.886517320999928,FALSE,FALSE
S08,4,69.8124291010485,28,0,0.454783549000012,TRUE,FALSE
S08,5,80.2149426987335,29,0,0.712964343000067,FALSE,FALSE
S08,4,69.8124291010485,30,0,0.732198402999984,FALSE,FALSE
S08,9,139.812303279409,31,1,0.699705591999987,FALSE,FALSE
S08,10,160.645261030852,32,1,1.45204566000007,FALSE,FALSE
S08,7,105.901066548623,33,0,0.666142306999973,FALSE,FALSE
S08,7,105.901066548623,34,0,0.590752851999923,FALSE,FALSE
S08,8,121.681025776038,35,1,0.921403492999957,FALSE,FALSE
S08,8,121.681025776038,36,0,1.03728337899997,FALSE,FALSE
S08,3,60.7589445683897,37,0,0.688527985000064,FALSE,FALSE
S08,9,139.812303279409,38,1,0.656894656000077,FALSE,FALSE
S08,4,69.8124291010485,39,0,0.648764535999931,FALSE,FALSE
S08,2,52.8795429782462,40,0,0.638054054000008,FALSE,FALSE
S08,2,52.8795429782462,41,0,0.647452188999978,FALSE,FALSE
S08,7,105.901066548623,42,0,1.11940510500006,FALSE,FALSE
S08,3,60.7589445683897,43,0,0.673318154000071,FALSE,FALSE
S08,7,105.901066548623,44,0,0.849683642999935,FALSE,FALSE
S08,4,69.8124291010485,45,0,0.657081463000054,FALSE,FALSE
S08,3,60.7589445683897,46,0,0.632173303999934,FALSE,FALSE
S08,3,60.7589445683897,47,0,0.666838502000019,FALSE,FALSE
S08,8,121.681025776038,48,1,0.679776871999934,FALSE,FALSE
S08,6,92.1674996131094,49,0,0.636711926000089,FALSE,FALSE
S08,4,69.8124291010485,50,0,0.607947017000015,FALSE,FALSE
S08,8,121.681025776038,51,0,0.991514854000002,FALSE,FALSE
S08,7,105.901066548623,52,0,0.872556254999949,FALSE,FALSE
S08,9,139.812303279409,53,1,0.766449819000059,FALSE,FALSE
S08,8,121.681025776038,54,0,1.16605757900004,FALSE,FALSE
S08,1,46.0219657443318,55,0,0.582830770000101,FALSE,FALSE
S08,5,80.2149426987335,56,0,0.444161387999998,TRUE,FALSE
S08,7,105.901066548623,57,0,0.967081165999957,FALSE,FALSE
S08,2,52.8795429782462,58,0,0.646018647999995,FALSE,FALSE
S08,4,69.8124291010485,59,0,0.620047441999986,FALSE,FALSE
S08,6,92.1674996131094,60,0,0.761074777999966,FALSE,FALSE
S08,5,80.2149426987335,61,0,0.766469153999992,FALSE,FALSE
S08,5,80.2149426987335,62,0,0.630397141000003,FALSE,FALSE
S08,6,92.1674996131094,63,0,0.654249400000026,FALSE,FALSE
S08,6,92.1674996131094,64,0,0.669603191000078,FALSE,FALSE
S08,8,121.681025776038,65,1,0.780328834000102,FALSE,FALSE
S09,6,92.1674996131094,1,1,1.06506629100022,FALSE,FALSE
S09,1,46.0219657443318,2,0,1.07378084299944,FALSE,FALSE
S09,10,160.645261030852,3,1,1.0808322390003,FALSE,FALSE
S09,9,139.812303279409,4,1,1.10224118299993,FALSE,FALSE
S09,8,121.681025776038,5,1,1.21197906799989,FALSE,FALSE
S09,3,60.7589445683897,6,0,0.973850153000058,FALSE,FALSE
S09,4,69.8124291010485,7,0,1.20829480199973,FALSE,FALSE
S09,6,92.1674996131094,8,0,1.19213826400028,FALSE,FALSE
S09,8,121.681025776038,9,0,1.10562014600055,FALSE,FALSE
S09,9,139.812303279409,10,1,0.96914048599956,FALSE,FALSE
S09,4,69.8124291010485,11,0,1.00244211100016,FALSE,FALSE
S09,1,46.0219657443318,12,0,1.15172778499982,FALSE,FALSE
S09,5,80.2149426987335,13,0,0.972218261999842,FALSE,FALSE
S09,6,92.1674996131094,14,0,1.18743863000054,FALSE,FALSE
S09,5,80.2149426987335,15,0,1.08253721799974,FALSE,FALSE
S09,5,80.2149426987335,16,0,0.975752526999713,FALSE,FALSE
S09,3,60.7589445683897,17,0,1.12302341299983,FALSE,FALSE
S09,3,60.7589445683897,18,0,0.970873245999428,FALSE,FALSE
S09,5,80.2149426987335,19,0,0.957480776000011,FALSE,FALSE
S09,8,121.681025776038,20,1,1.02498575200025,FALSE,FALSE
S09,7,105.901066548623,21,0,1.07125172999986,FALSE,FALSE
S09,7,105.901066548623,22,0,1.09971076900001,FALSE,FALSE
S09,10,160.645261030852,23,1,1.16758663600012,FALSE,FALSE
S09,7,105.901066548623,24,0,1.24650753999958,FALSE,FALSE
S09,3,60.7589445683897,25,0,0.978745870000239,FALSE,FALSE
S09,2,52.8795429782462,26,0,0.817679772000702,FALSE,FALSE
S09,7,105.901066548623,27,0,1.07661996600018,FALSE,FALSE
S09,2,52.8795429782462,28,0,1.15327412599981,FALSE,FALSE
S09,3,60.7589445683897,29,0,1.11215586299932,FALSE,FALSE
S09,9,139.812303279409,30,1,1.04643493000003,FALSE,FALSE
S09,3,60.7589445683897,31,0,0.938351881000017,FALSE,FALSE
S09,8,121.681025776038,32,1,0.937382174000049,FALSE,FALSE
S09,6,92.1674996131094,33,0,0.997294161999889,FALSE,FALSE
S09,10,160.645261030852,34,1,1.00157913600015,FALSE,FALSE
S09,2,52.8795429782462,35,0,0.947301053999581,FALSE,FALSE
S09,4,69.8124291010485,36,0,1.19965404599952,FALSE,FALSE
S09,5,80.2149426987335,37,0,1.28161060100047,FALSE,FALSE
S09,4,69.8124291010485,38,0,1.06820502400024,FALSE,FALSE
S09,4,69.8124291010485,39,0,1.18522107399986,FALSE,FALSE
S09,9,139.812303279409,40,1,1.01576055699934,FALSE,FALSE
S09,5,80.2149426987335,41,0,1.12446841600013,FALSE,FALSE
S09,7,105.901066548623,42,0,1.15098333500009,FALSE,FALSE
S09,4,69.8124291010485,43,0,0.934529199999815,FALSE,FALSE
S09,8,121.681025776038,44,1,1.05936089700026,FALSE,FALSE
S09,4,69.8124291010485,45,0,0.925907143000586,FALSE,FALSE
S09,3,60.7589445683897,46,0,0.946778714000175,FALSE,FALSE
S09,6,92.1674996131094,47,0,0.977391256999908,FALSE,FALSE
S09,3,60.7589445683897,48,0,1.10653855300006,FALSE,FALSE
S09,7,105.901066548623,49,0,0.844593818999783,FALSE,FALSE
S09,5,80.2149426987335,50,0,0.875507583999934,FALSE,FALSE
S09,10,160.645261030852,51,1,0.925539386999844,FALSE,FALSE
S09,6,92.1674996131094,52,0,1.0556921590005,FALSE,FALSE
S09,7,105.901066548623,53,0,0.918371662000027,FALSE,FALSE
S09,6,92.1674996131094,54,0,0.882989644999725,FALSE,FALSE
S09,4,69.8124291010485,55,0,0.946660270999928,FALSE,FALSE
S09,7,105.901066548623,56,0,0.987615481999455,FALSE,FALSE
S09,8,121.681025776038,57,1,0.861531423000088,FALSE,FALSE
S09,1,46.0219657443318,58,0,0.916362936000041,TRUE,FALSE
S09,2,52.8795429782462,59,0,0.959563268000238,FALSE,FALSE
S09,8,121.681025776038,60,1,1.23212941200018,FALSE,FALSE
S09,8,121.681025776038,61,1,1.30663465199996,FALSE,FALSE
S09,5,80.2149426987335,62,0,0.851870909999889,FALSE,FALSE
S09,1,46.0219657443318,63,0,1.09374243000002,FALSE,FALSE
S09,6,92.1674996131094,64,0,1.15067131100022,FALSE,FALSE
S09,6,92.1674996131094,65,0,1.02997591500025,FALSE,FALSE
S10,6,92.1674996131094,1,0,1.24583331499889,FALSE,FALSE
S10,3,60.7589445683897,2,0,1.32392741900003,FALSE,FALSE
S10,7,105.901066548623,3,0,1.71034930799942,FALSE,FALSE
S10,4,69.8124291010485,4,0,1.69626583700119,FALSE,FALSE
S10,5,80.2149426987335,5,0,1.41644738300056,FALSE,FALSE
S10,1,46.0219657443318,6,0,1.66601721000006,FALSE,FALSE
S10,8,121.681025776038,7,1,2.56995869800085,FALSE,FALSE
S10,10,160.645261030852,8,1,2.42356014799952,FALSE,FALSE
S10,3,60.7589445683897,9,0,1.22092194400102,FALSE,FALSE
S10,8,121.681025776038,10,0,2.96218211899941,FALSE,FALSE
S10,3,60.7589445683897,11,0,0.951527639999767,FALSE,FALSE
S10,6,92.1674996131094,12,0,1.13853055500113,FALSE,FALSE
S10,8,121.681025776038,13,1,1.71291630899941,FALSE,FALSE
S10,7,105.901066548623,14,1,1.69005467900024,FALSE,FALSE
S10,9,139.812303279409,15,1,1.79031352900165,FALSE,FALSE
S10,8,121.681025776038,16,0,2.47007380600007,FALSE,FALSE
S10,2,52.8795429782462,17,0,1.78979387899926,FALSE,FALSE
S10,2,52.8795429782462,18,0,1.78640054700008,FALSE,FALSE
S10,9,139.812303279409,19,1,3.08457502900092,FALSE,FALSE
S10,6,92.1674996131094,20,0,2.4878734949998,FALSE,FALSE
S10,6,92.1674996131094,21,0,3.37844413999846,FALSE,FALSE
S10,7,105.901066548623,22,1,1.59436038100102,FALSE,FALSE
S10,6,92.1674996131094,23,1,2.76584343099967,FALSE,FALSE
S10,5,80.2149426987335,24,0,1.3109704540002,FALSE,FALSE
S10,10,160.645261030852,25,1,3.64855994499885,FALSE,FALSE
S10,1,46.0219657443318,26,0,1.88573077799992,FALSE,FALSE
S10,6,92.1674996131094,27,0,2.03789565799889,FALSE,FALSE
S10,4,69.8124291010485,28,0,1.84453209599997,FALSE,FALSE
S10,2,52.8795429782462,29,0,1.56331884300016,FALSE,FALSE
S10,7,105.901066548623,30,0,3.22592966400043,FALSE,FALSE
S10,7,105.901066548623,31,0,1.78897775899895,FALSE,FALSE
S10,2,52.8795429782462,32,0,3.34493365100025,TRUE,FALSE
S10,4,69.8124291010485,33,0,3.44945827099946,TRUE,FALSE
S10,7,105.901066548623,34,1,3.12085152500003,FALSE,FALSE
S10,5,80.2149426987335,35,1,3.26725325699954,FALSE,FALSE
S10,7,105.901066548623,36,1,2.91589528199984,FALSE,FALSE
S10,8,121.681025776038,37,1,1.77777553300075,FALSE,FALSE
S10,5,80.2149426987335,38,0,1.97379061799984,FALSE,FALSE
S10,8,121.681025776038,39,0,2.37731826799973,FALSE,FALSE
S10,8,121.681025776038,40,0,1.52788509800121,FALSE,FALSE
S10,4,69.8124291010485,41,0,1.13708850200055,TRUE,FALSE
S10,3,60.7589445683897,42,0,1.11156501899859,FALSE,FALSE
S10,9,139.812303279409,43,1,1.55717777099926,FALSE,FALSE
S10,5,80.2149426987335,44,0,2.03140449400053,FALSE,FALSE
S10,4,69.8124291010485,45,0,1.62515330099995,FALSE,FALSE
S10,6,92.1674996131094,46,0,2.58646841700102,FALSE,FALSE
S10,1,46.0219657443318,47,0,1.23098098599985,FALSE,FALSE
S10,5,80.2149426987335,48,0,1.55719222399966,FALSE,FALSE
S10,5,80.2149426987335,49,0,2.69549202800044,FALSE,FALSE
S10,3,60.7589445683897,50,0,1.1451225969995,FALSE,FALSE
S10,3,60.7589445683897,51,0,1.22746915700009,FALSE,FALSE
S10,4,69.8124291010485,52,0,2.17916778300059,FALSE,FALSE
S10,4,69.8124291010485,53,0,1.78491612000107,FALSE,FALSE
S10,9,139.812303279409,54,1,2.51416815099947,FALSE,FALSE
S10,10,160.645261030852,55,1,1.60697970899855,FALSE,FALSE
S10,7,105.901066548623,56,0,0.974398133999784,FALSE,FALSE
S10,3,60.7589445683897,57,0,1.08841155599839,FALSE,FALSE
S10,1,46.0219657443318,58,0,1.08968865700081,FALSE,FALSE
S10,3,60.7589445683897,59,0,1.90945630199894,TRUE,FALSE
S10,5,80.2149426987335,60,0,2.14365008799905,FALSE,FALSE
S10,6,92.1674996131094,61,0,1.55406109400064,FALSE,FALSE
S10,10,160.645261030852,62,1,1.60189089500091,FALSE,FALSE
S10,4,69.8124291010485,63,0,1.99062897799922,FALSE,FALSE
S10,8,121.681025776038,64,0,2.19777391299976,FALSE,FALSE
S10,6,92.1674996131094,65,0,2.30015689199899,FALSE,FALSE
S11,7,105.901066548623,1,0,1.2539701780006,FALSE,FALSE
S11,6,92.1674996131094,2,0,1.63497068499782,FALSE,FALSE
S11,10,160.645261030852,3,1,0.565587586999754,FALSE,FALSE
S11,8,121.681025776038,4,1,1.31052551799803,FALSE,FALSE
S11,4,69.8124291010485,5,0,1.03045908199783,FALSE,FALSE
S11,7,105.901066548623,6,1,7.74301027299953,TRUE,TRUE
S11,4,69.8124291010485,7,0,0.607310900002631,FALSE,FALSE
S11,6,92.1674996131094,8,0,1.20852030599781,FALSE,FALSE
S11,8,121.681025776038,9,1,0.7643311920001,FALSE,FALSE
S11,9,139.812303279409,10,1,0.747888499001419,FALSE,FALSE
S11,5,80.2149426987335,11,0,1.02488733800055,FALSE,FALSE
S11,9,139.812303279409,12,1,0.591360692000308,FALSE,FALSE
S11,6,92.1674996131094,13,0,0.833212877998449,FALSE,FALSE
S11,6,92.1674996131094,14,0,1.11491702000058,FALSE,FALSE
S11,5,80.2149426987335,15,0,0.61611333700057,FALSE,FALSE
S11,6,92.1674996131094,16,1,2.17927215799864,FALSE,FALSE
S11,4,69.8124291010485,17,0,0.730851886997698,FALSE,FALSE
S11,3,60.7589445683897,18,0,1.33130494600118,FALSE,FALSE
S11,6,92.1674996131094,19,0,1.75360086499859,FALSE,FALSE
S11,3,60.7589445683897,20,0,1.08738866600106,FALSE,FALSE
S11,4,69.8124291010485,21,0,0.802285607998783,FALSE,FALSE
S11,9,139.812303279409,22,1,0.596855939998932,FALSE,FALSE
S11,7,105.901066548623,23,0,2.49599887500153,FALSE,TRUE
S11,10,160.645261030852,24,1,0.674904293999134,FALSE,FALSE
S11,4,69.8124291010485,25,0,0.71901010199872,FALSE,FALSE
S11,8,121.681025776038,26,1,0.827479134000896,FALSE,FALSE
S11,6,92.1674996131094,27,0,0.718999036998866,FALSE,FALSE
S11,2,52.8795429782462,28,0,0.593695920000755,FALSE,FALSE
S11,10,160.645261030852,29,1,0.574348166999698,FALSE,FALSE
S11,10,160.645261030852,30,1,0.813632191002398,FALSE,FALSE
S11,1,46.0219657443318,31,0,0.680884795001475,FALSE,FALSE
S11,8,121.681025776038,32,1,0.568023933999939,FALSE,FALSE
S11,8,121.681025776038,33,1,0.452563098002429,FALSE,FALSE
S11,1,46.0219657443318,34,0,0.820005667999794,FALSE,FALSE
S11,3,60.7589445683897,35,0,1.3947366249995,FALSE,FALSE
S11,5,80.2149426987335,36,0,1.11697109300076,FALSE,FALSE
S11,7,105.901066548623,37,1,0.565101352000056,FALSE,FALSE
S11,8,121.681025776038,38,1,0.84122283400211,FALSE,FALSE
S11,7,105.901066548623,39,1,0.934927552003501,FALSE,FALSE
S11,7,105.901066548623,40,1,1.28358666900021,FALSE,FALSE
S11,3,60.7589445683897,41,0,0.77295695200155,FALSE,FALSE
S11,3,60.7589445683897,42,0,0.800777331998688,FALSE,FALSE
S11,1,46.0219657443318,43,0,0.633228390997829,FALSE,FALSE
S11,5,80.2149426987335,44,0,1.10081977300069,FALSE,FALSE
S11,4,69.8124291010485,45,0,0.652645681002468,FALSE,FALSE
S11,4,69.8124291010485,46,0,1.44301137799994,FALSE,FALSE
S11,1,46.0219657443318,47,0,0.586106916998688,FALSE,FALSE
S11,4,69.8124291010485,48,0,1.30905382000128,FALSE,FALSE
S11,5,80.2149426987335,49,0,0.690021574999264,FALSE,FALSE
S11,2,52.8795429782462,50,0,0.983002925000619,FALSE,FALSE
S11,2,52.8795429782462,51,0,0.742710030001035,FALSE,FALSE
S11,6,92.1674996131094,52,0,0.762049296001351,FALSE,FALSE
S11,7,105.901066548623,53,1,0.901096852998307,FALSE,FALSE
S11,2,52.8795429782462,54,0,0.510123054998985,FALSE,FALSE
S11,7,105.901066548623,55,1,1.91274408499885,FALSE,FALSE
S11,5,80.2149426987335,56,0,1.12902666399896,FALSE,FALSE
S11,5,80.2149426987335,57,0,0.833076159000484,FALSE,FALSE
S11,8,121.681025776038,58,1,1.0422097840019,FALSE,FALSE
S11,5,80.2149426987335,59,0,1.05878448899966,FALSE,FALSE
S11,3,60.7589445683897,60,0,0.718255168998439,FALSE,FALSE
S11,8,121.681025776038,61,1,1.28082191900103,FALSE,FALSE
S11,3,60.7589445683897,62,0,3.64755472999968,TRUE,TRUE
S11,9,139.812303279409,63,1,0.38901232599892,TRUE,FALSE
S11,3,60.7589445683897,64,0,0.594534746000136,FALSE,FALSE
S11,7,105.901066548623,65,1,1.00910076500077,FALSE,FALSE
S12,4,69.8124291010485,1,0,0.509499671999947,FALSE,FALSE
S12,5,80.2149426987335,2,0,0.435933218999708,FALSE,FALSE
S12,6,92.1674996131094,3,0,0.607459210001252,FALSE,FALSE
S12,3,60.7589445683897,4,0,0.622172472001694,FALSE,FALSE
S12,1,46.0219657443318,5,0,0.503325974998006,FALSE,FALSE
S12,6,92.1674996131094,6,0,0.679903669999476,FALSE,FALSE
S12,8,121.681025776038,7,1,0.55429021999953,FALSE,FALSE
S12,3,60.7589445683897,8,0,0.444935285999236,FALSE,FALSE
S12,5,80.2149426987335,9,0,0.471281482998165,FALSE,FALSE
S12,5,80.2149426987335,10,0,0.430577155999345,FALSE,FALSE
S12,4,69.8124291010485,11,0,0.528099095998186,FALSE,FALSE
S12,3,60.7589445683897,12,0,0.575430952998431,FALSE,FALSE
S12,3,60.7589445683897,13,0,0.399963425999886,FALSE,FALSE
S12,7,105.901066548623,14,0,0.917294663002394,FALSE,FALSE
S12,7,105.901066548623,15,0,0.669258117999561,FALSE,FALSE
S12,5,80.2149426987335,16,0,0.483581952001259,FALSE,FALSE
S12,7,105.901066548623,17,0,0.636606498999754,FALSE,FALSE
S12,3,60.7589445683897,18,0,0.506571132998943,FALSE,FALSE
S12,6,92.1674996131094,19,0,0.704889371001627,FALSE,FALSE
S12,5,80.2149426987335,20,0,0.495732678999047,FALSE,FALSE
S12,1,46.0219657443318,21,0,0.733063040999696,FALSE,FALSE
S12,7,105.901066548623,22,0,0.627928670000983,FALSE,FALSE
S12,2,52.8795429782462,23,0,0.525105751003139,FALSE,FALSE
S12,2,52.8795429782462,24,0,0.378880706000928,FALSE,FALSE
S12,9,139.812303279409,25,1,0.676251244000014,FALSE,FALSE
S12,9,139.812303279409,26,1,0.547892326001602,FALSE,FALSE
S12,5,80.2149426987335,27,0,0.588026598001306,FALSE,FALSE
S12,10,160.645261030852,28,1,0.603257471000688,FALSE,FALSE
S12,4,69.8124291010485,29,0,0.451845135998155,FALSE,FALSE
S12,4,69.8124291010485,30,0,0.460232666999218,FALSE,FALSE
S12,7,105.901066548623,31,0,0.439476640000066,FALSE,FALSE
S12,4,69.8124291010485,32,0,0.902887066000403,TRUE,FALSE
S12,8,121.681025776038,33,0,1.06147784600034,FALSE,FALSE
S12,4,69.8124291010485,34,0,0.458141114999307,FALSE,FALSE
S12,9,139.812303279409,35,0,0.907477216998814,FALSE,FALSE
S12,3,60.7589445683897,36,0,0.565481264002301,FALSE,FALSE
S12,8,121.681025776038,37,0,0.748071186997549,FALSE,FALSE
S12,6,92.1674996131094,38,0,0.506879972999741,FALSE,FALSE
S12,7,105.901066548623,39,0,0.438509117000649,FALSE,FALSE
S12,9,139.812303279409,40,0,1.88756679500148,FALSE,TRUE
S12,8,121.681025776038,41,0,1.52167287100019,FALSE,TRUE
S12,10,160.645261030852,42,1,0.716482851999899,FALSE,FALSE
S12,7,105.901066548623,43,0,0.561133735998737,FALSE,FALSE
S12,8,121.681025776038,44,0,0.785961834000773,FALSE,FALSE
S12,5,80.2149426987335,45,0,0.494108483999298,FALSE,FALSE
S12,3,60.7589445683897,46,0,0.423717200999818,FALSE,FALSE
S12,4,69.8124291010485,47,0,0.471843920000538,FALSE,FALSE
S12,6,92.1674996131094,48,0,0.530607517997851,FALSE,FALSE
S12,2,52.8795429782462,49,0,0.550510368997493,FALSE,FALSE
S12,8,121.681025776038,50,0,0.941040220001014,FALSE,FALSE
S12,1,46.0219657443318,51,0,0.638045518000581,FALSE,FALSE
S12,4,69.8124291010485,52,0,0.665090627997415,TRUE,FALSE
S12,2,52.8795429782462,53,0,0.779453341998305,FALSE,FALSE
S12,5,80.2149426987335,54,0,0.652925048998441,TRUE,FALSE
S12,8,121.681025776038,55,1,1.08353990200339,FALSE,FALSE
S12,8,121.681025776038,56,1,1.54654016099812,FALSE,TRUE
S12,7,105.901066548623,57,0,0.666522638999595,FALSE,FALSE
S12,6,92.1674996131094,58,0,0.578988158998982,FALSE,FALSE
S12,10,160.645261030852,59,1,1.28533039600006,FALSE,TRUE
S12,1,46.0219657443318,60,0,0.530667214999994,FALSE,FALSE
S12,3,60.7589445683897,61,0,0.545673169999645,FALSE,FALSE
S12,10,160.645261030852,62,1,0.613435710001795,FALSE,FALSE
S12,6,92.1674996131094,63,0,0.379317529997934,FALSE,FALSE
S12,6,92.1674996131094,64,0,0.370004349002556,FALSE,FALSE
S12,4,69.8124291010485,65,0,0.425452561001293,FALSE,FALSE
S13,3,60.7589445683897,1,0,1.07383359099913,FALSE,FALSE
S13,4,69.8124291010485,2,0,0.959420545998,FALSE,FALSE
S13,2,52.8795429782462,3,0,0.98405285699846,FALSE,FALSE
S13,10,160.645261030852,4,1,1.21215183700042,FALSE,FALSE
S13,9,139.812303279409,5,1,1.11944134700025,TRUE,FALSE
S13,6,92.1674996131094,6,1,1.93303476800065,FALSE,TRUE
S13,1,46.0219657443318,7,0,1.08010002500305,FALSE,FALSE
S13,5,80.2149426987335,8,0,1.30888417499955,FALSE,FALSE
S13,5,80.2149426987335,9,0,1.08398167499763,FALSE,FALSE
S13,7,105.901066548623,10,1,0.872697398001037,FALSE,FALSE
S13,6,92.1674996131094,11,1,1.74123968499771,FALSE,FALSE
S13,7,105.901066548623,12,1,1.04830445499829,FALSE,FALSE
S13,1,46.0219657443318,13,0,0.883090440998785,FALSE,FALSE
S13,3,60.7589445683897,14,0,0.864554198000405,FALSE,FALSE
S13,1,46.0219657443318,15,0,0.754083330000867,FALSE,FALSE
S13,8,121.681025776038,16,1,0.890914355997666,FALSE,FALSE
S13,5,80.2149426987335,17,0,1.01203232299667,FALSE,FALSE
S13,2,52.8795429782462,18,0,0.847751612996944,FALSE,FALSE
S13,6,92.1674996131094,19,0,1.22542493500077,FALSE,FALSE
S13,8,121.681025776038,20,1,0.869012472998293,FALSE,FALSE
S13,10,160.645261030852,21,1,1.06006394200085,FALSE,FALSE
S13,2,52.8795429782462,22,0,0.87361057200178,FALSE,FALSE
S13,1,46.0219657443318,23,0,0.695443933000206,FALSE,FALSE
S13,7,105.901066548623,24,1,0.745884676001879,FALSE,FALSE
S13,9,139.812303279409,25,1,0.890719869999884,FALSE,FALSE
S13,7,105.901066548623,26,0,1.89686855500258,FALSE,TRUE
S13,7,105.901066548623,27,1,1.1267348399997,FALSE,FALSE
S13,8,121.681025776038,28,1,0.909322929001064,FALSE,FALSE
S13,6,92.1674996131094,29,0,1.36736320799901,FALSE,FALSE
S13,6,92.1674996131094,30,0,0.989416909000283,FALSE,FALSE
S13,5,80.2149426987335,31,0,0.890253651999956,FALSE,FALSE
S13,9,139.812303279409,32,1,0.917662758998631,FALSE,FALSE
S13,5,80.2149426987335,33,0,0.800485250998463,FALSE,FALSE
S13,3,60.7589445683897,34,0,0.890732077001303,FALSE,FALSE
S13,5,80.2149426987335,35,0,0.817877376000979,FALSE,FALSE
S13,6,92.1674996131094,36,0,0.948245842999313,FALSE,FALSE
S13,3,60.7589445683897,37,0,0.775796744997933,FALSE,FALSE
S13,10,160.645261030852,38,1,0.885081121999974,FALSE,FALSE
S13,4,69.8124291010485,39,0,0.791220524999517,FALSE,FALSE
S13,5,80.2149426987335,40,0,1.01095605600131,FALSE,FALSE
S13,8,121.681025776038,41,1,0.818987282000307,FALSE,FALSE
S13,7,105.901066548623,42,1,2.3858082600018,FALSE,TRUE
S13,5,80.2149426987335,43,0,0.966344549000496,FALSE,FALSE
S13,4,69.8124291010485,44,0,0.75870964799833,FALSE,FALSE
S13,7,105.901066548623,45,1,1.21237472099892,FALSE,FALSE
S13,3,60.7589445683897,46,0,0.76397306799845,FALSE,FALSE
S13,3,60.7589445683897,47,0,0.797457886998018,FALSE,FALSE
S13,8,121.681025776038,48,1,0.925757635999616,FALSE,FALSE
S13,4,69.8124291010485,49,0,1.1607520610014,FALSE,FALSE
S13,9,139.812303279409,50,1,0.872847595001076,FALSE,FALSE
S13,8,121.681025776038,51,0,1.38575805599976,FALSE,FALSE
S13,8,121.681025776038,52,1,2.28456356899915,FALSE,TRUE
S13,3,60.7589445683897,53,0,0.940857408997545,FALSE,FALSE
S13,7,105.901066548623,54,0,2.76382096299858,FALSE,TRUE
S13,4,69.8124291010485,55,0,0.966069679001521,FALSE,FALSE
S13,6,92.1674996131094,56,1,2.15193309700044,FALSE,TRUE
S13,10,160.645261030852,57,1,1.1815865919998,FALSE,FALSE
S13,3,60.7589445683897,58,0,0.770936303000781,FALSE,FALSE
S13,6,92.1674996131094,59,1,2.03914453099787,FALSE,TRUE
S13,4,69.8124291010485,60,0,0.739352357002645,FALSE,FALSE
S13,8,121.681025776038,61,1,1.28193490299964,FALSE,FALSE
S13,2,52.8795429782462,62,0,0.734190276998561,FALSE,FALSE
S13,4,69.8124291010485,63,0,0.813741410998773,FALSE,FALSE
S13,4,69.8124291010485,64,0,1.0561050460019,FALSE,FALSE
S13,3,60.7589445683897,65,0,0.942823861998477,FALSE,FALSE
S14,3,60.7589445683897,1,0,0.922252898999886,FALSE,FALSE
S14,5,80.2149426987335,2,0,1.02338372899976,FALSE,FALSE
S14,9,139.812303279409,3,1,1.00364018500022,FALSE,FALSE
S14,8,121.681025776038,4,1,2.63787411500016,TRUE,TRUE
S14,5,80.2149426987335,5,0,1.01316726300001,FALSE,FALSE
S14,2,52.8795429782462,6,0,0.81700140599969,FALSE,FALSE
S14,4,69.8124291010485,7,0,0.887341247000222,FALSE,FALSE
S14,10,160.645261030852,8,1,1.4812958980001,FALSE,FALSE
S14,3,60.7589445683897,9,0,0.85983164199979,FALSE,FALSE
S14,4,69.8124291010485,10,0,0.854408773000159,FALSE,FALSE
S14,8,121.681025776038,11,1,1.37592601599999,FALSE,FALSE
S14,1,46.0219657443318,12,0,0.83256868799981,FALSE,FALSE
S14,9,139.812303279409,13,1,1.17085405299986,FALSE,FALSE
S14,9,139.812303279409,14,1,1.17441041599977,FALSE,FALSE
S14,2,52.8795429782462,15,0,0.905676072000006,FALSE,FALSE
S14,6,92.1674996131094,16,1,1.40570059399988,FALSE,FALSE
S14,5,80.2149426987335,17,0,1.472544406,TRUE,FALSE
S14,4,69.8124291010485,18,1,1.49640475199976,TRUE,FALSE
S14,4,69.8124291010485,19,0,1.51306365399978,TRUE,FALSE
S14,1,46.0219657443318,20,0,0.850334295000266,FALSE,FALSE
S14,3,60.7589445683897,21,0,0.665845440999874,TRUE,FALSE
S14,6,92.1674996131094,22,1,1.07230571700029,FALSE,FALSE
S14,9,139.812303279409,23,1,1.0084584629999,FALSE,FALSE
S14,7,105.901066548623,24,1,1.23052614699964,FALSE,FALSE
S14,7,105.901066548623,25,1,1.1768454840003,FALSE,FALSE
S14,5,80.2149426987335,26,0,1.05527699100003,FALSE,FALSE
S14,7,105.901066548623,27,1,0.877174695999656,TRUE,FALSE
S14,10,160.645261030852,28,1,0.928579741000249,FALSE,FALSE
S14,6,92.1674996131094,29,1,1.30464631999985,FALSE,FALSE
S14,7,105.901066548623,30,1,2.00879304400041,TRUE,TRUE
S14,6,92.1674996131094,31,0,1.1981798439997,FALSE,FALSE
S14,4,69.8124291010485,32,0,0.885035054999662,FALSE,FALSE
S14,7,105.901066548623,33,1,0.894152826000209,FALSE,FALSE
S14,4,69.8124291010485,34,0,0.805394703000275,FALSE,FALSE
S14,6,92.1674996131094,35,0,0.796505985000294,TRUE,FALSE
S14,1,46.0219657443318,36,0,0.760838286000308,FALSE,FALSE
S14,5,80.2149426987335,37,0,0.980471811000371,FALSE,FALSE
S14,6,92.1674996131094,38,1,1.1399260180001,FALSE,FALSE
S14,8,121.681025776038,39,0,0.876866337000138,FALSE,FALSE
S14,4,69.8124291010485,40,0,0.680254423999941,FALSE,FALSE
S14,5,80.2149426987335,41,0,1.00693215799993,FALSE,FALSE
S14,3,60.7589445683897,42,0,0.628120164999928,TRUE,FALSE
S14,8,121.681025776038,43,1,1.08980771699999,FALSE,FALSE
S14,7,105.901066548623,44,1,1.14903708499969,FALSE,FALSE
S14,2,52.8795429782462,45,0,0.71362159499995,FALSE,FALSE
S14,1,46.0219657443318,46,0,0.932333737000135,FALSE,FALSE
S14,8,121.681025776038,47,1,1.00971177699967,FALSE,FALSE
S14,3,60.7589445683897,48,0,0.855772003000311,FALSE,FALSE
S14,10,160.645261030852,49,1,0.897319277999941,FALSE,FALSE
S14,5,80.2149426987335,50,1,1.59736401600003,TRUE,FALSE
S14,5,80.2149426987335,51,1,1.06603074499981,FALSE,FALSE
S14,8,121.681025776038,52,1,1.3111713620001,FALSE,FALSE
S14,8,121.681025776038,53,1,0.956706735999887,FALSE,FALSE
S14,6,92.1674996131094,54,0,1.17797504100008,FALSE,FALSE
S14,6,92.1674996131094,55,0,1.11305236700036,FALSE,FALSE
S14,3,60.7589445683897,56,0,0.852936819999741,FALSE,FALSE
S14,2,52.8795429782462,57,0,0.762168559999736,FALSE,FALSE
S14,7,105.901066548623,58,1,1.23211837400004,FALSE,FALSE
S14,3,60.7589445683897,59,0,0.871776570999828,FALSE,FALSE
S14,7,105.901066548623,60,1,1.15208626599997,FALSE,FALSE
S14,8,121.681025776038,61,1,0.794308750999789,FALSE,FALSE
S14,10,160.645261030852,62,1,1.4613709539999,FALSE,FALSE
S14,4,69.8124291010485,63,0,0.809339009000269,FALSE,FALSE
S14,3,60.7589445683897,64,0,0.784761818000334,FALSE,FALSE
S14,3,60.7589445683897,65,0,1.02381275700009,TRUE,FALSE
S16,6,92.1674996131094,1,0,1.39980416000071,FALSE,FALSE
S16,6,92.1674996131094,2,0,1.87815605000014,FALSE,FALSE
S16,4,69.8124291010485,3,0,1.76566428499973,TRUE,FALSE
S16,1,46.0219657443318,4,0,1.47141157700025,FALSE,FALSE
S16,1,46.0219657443318,5,0,1.14732819600067,FALSE,FALSE
S16,8,121.681025776038,6,1,1.72565140900042,FALSE,FALSE
S16,5,80.2149426987335,7,0,1.19876184100031,FALSE,FALSE
S16,3,60.7589445683897,8,0,2.09551439400002,TRUE,FALSE
S16,2,52.8795429782462,9,0,1.278731935,FALSE,FALSE
S16,9,139.812303279409,10,1,1.41683834600008,FALSE,FALSE
S16,7,105.901066548623,11,1,2.60812540799998,FALSE,FALSE
S16,6,92.1674996131094,12,0,2.68110618500032,FALSE,FALSE
S16,3,60.7589445683897,13,0,0.860500005000176,FALSE,FALSE
S16,8,121.681025776038,14,1,2.73223350100034,FALSE,FALSE
S16,4,69.8124291010485,15,0,0.933604975999515,FALSE,FALSE
S16,10,160.645261030852,16,1,0.755644381999446,FALSE,FALSE
S16,8,121.681025776038,17,1,1.10982490599963,FALSE,FALSE
S16,2,52.8795429782462,18,0,0.82928661599999,FALSE,FALSE
S16,5,80.2149426987335,19,0,0.973266161000538,FALSE,FALSE
S16,7,105.901066548623,20,0,1.66176967799947,FALSE,FALSE
S16,9,139.812303279409,21,1,0.781415843000104,FALSE,FALSE
S16,3,60.7589445683897,22,0,0.856896612000128,FALSE,FALSE
S16,3,60.7589445683897,23,0,0.877493421000509,FALSE,FALSE
S16,4,69.8124291010485,24,0,0.845971665999969,FALSE,FALSE
S16,6,92.1674996131094,25,0,1.25092637000034,FALSE,FALSE
S16,8,121.681025776038,26,1,1.09794667799997,FALSE,FALSE
S16,7,105.901066548623,27,1,1.73116513399964,FALSE,FALSE
S16,7,105.901066548623,28,1,1.4248828740001,FALSE,FALSE
S16,5,80.2149426987335,29,0,1.10823379300018,FALSE,FALSE
S16,8,121.681025776038,30,1,1.96607195900015,FALSE,FALSE
S16,8,121.681025776038,31,1,1.02481910700044,FALSE,FALSE
S16,3,60.7589445683897,32,0,1.13951316300063,FALSE,FALSE
S16,7,105.901066548623,33,0,2.53123227200012,FALSE,FALSE
S16,4,69.8124291010485,34,0,0.907761290999588,FALSE,FALSE
S16,7,105.901066548623,35,0,2.80600901300022,FALSE,FALSE
S16,3,60.7589445683897,36,0,0.736400003999734,FALSE,FALSE
S16,6,92.1674996131094,37,0,2.69585298699985,FALSE,FALSE
S16,7,105.901066548623,38,1,1.38824930300052,FALSE,FALSE
S16,2,52.8795429782462,39,0,0.959155176999957,FALSE,FALSE
S16,6,92.1674996131094,40,0,1.91188388800038,FALSE,FALSE
S16,5,80.2149426987335,41,0,2.03211358299995,TRUE,FALSE
S16,5,80.2149426987335,42,0,0.748761313999239,FALSE,FALSE
S16,1,46.0219657443318,43,0,1.41880964700067,FALSE,FALSE
S16,7,105.901066548623,44,1,1.71617873600007,FALSE,FALSE
S16,8,121.681025776038,45,1,2.8223796909997,FALSE,FALSE
S16,10,160.645261030852,46,1,0.71552457100006,FALSE,FALSE
S16,4,69.8124291010485,47,0,1.32278042600046,FALSE,FALSE
S16,8,121.681025776038,48,1,1.31413151700053,FALSE,FALSE
S16,6,92.1674996131094,49,1,1.6136844749999,FALSE,FALSE
S16,9,139.812303279409,50,1,0.852781133000462,FALSE,FALSE
S16,2,52.8795429782462,51,0,0.909584845999234,FALSE,FALSE
S16,4,69.8124291010485,52,0,0.780422621000071,FALSE,FALSE
S16,4,69.8124291010485,53,0,0.758542821999981,FALSE,FALSE
S16,3,60.7589445683897,54,0,1.39436481499979,FALSE,FALSE
S16,5,80.2149426987335,55,0,1.05114586200034,FALSE,FALSE
S16,9,139.812303279409,56,1,1.51756656399994,FALSE,FALSE
S16,10,160.645261030852,57,1,1.3929299700003,FALSE,FALSE
S16,5,80.2149426987335,58,0,1.0820457509999,FALSE,FALSE
S16,4,69.8124291010485,59,0,0.737713055000313,FALSE,FALSE
S16,5,80.2149426987335,60,0,0.718696576999719,FALSE,FALSE
S16,6,92.1674996131094,61,0,2.54832593300125,FALSE,FALSE
S16,1,46.0219657443318,62,0,0.84279172099923,FALSE,FALSE
S16,3,60.7589445683897,63,0,0.970431572999587,FALSE,FALSE
S16,10,160.645261030852,64,1,1.20450492999953,FALSE,FALSE
S16,6,92.1674996131094,65,0,1.98394275099963,FALSE,FALSE
S17,6,92.1674996131094,1,0,0.849059861999194,FALSE,FALSE
S17,1,46.0219657443318,2,0,0.617774555001233,FALSE,FALSE
S17,9,139.812303279409,3,1,1.38656739199905,FALSE,FALSE
S17,7,105.901066548623,4,0,0.697453107000911,FALSE,FALSE
S17,4,69.8124291010485,5,0,1.33393578000141,FALSE,FALSE
S17,2,52.8795429782462,6,0,0.503376448001291,FALSE,FALSE
S17,7,105.901066548623,7,1,1.47160224400068,FALSE,FALSE
S17,3,60.7589445683897,8,0,0.924233171001106,FALSE,FALSE
S17,6,92.1674996131094,9,1,1.17104083999948,FALSE,FALSE
S17,9,139.812303279409,10,1,1.3807112100003,FALSE,FALSE
S17,5,80.2149426987335,11,0,0.547052199999598,FALSE,FALSE
S17,3,60.7589445683897,12,0,0.437818090000292,FALSE,FALSE
S17,9,139.812303279409,13,1,0.906603172999894,FALSE,FALSE
S17,10,160.645261030852,14,1,0.596420522000699,FALSE,FALSE
S17,3,60.7589445683897,15,0,0.467333841999789,FALSE,FALSE
S17,4,69.8124291010485,16,0,0.926646767999046,FALSE,FALSE
S17,10,160.645261030852,17,1,0.682476902999042,FALSE,FALSE
S17,1,46.0219657443318,18,0,0.419076005000534,FALSE,FALSE
S17,4,69.8124291010485,19,0,1.58300009999948,FALSE,FALSE
S17,5,80.2149426987335,20,0,0.724445830999684,FALSE,FALSE
S17,6,92.1674996131094,21,1,0.901756859999296,FALSE,FALSE
S17,5,80.2149426987335,22,0,0.800237513998582,FALSE,FALSE
S17,7,105.901066548623,23,0,1.67438830799983,FALSE,FALSE
S17,8,121.681025776038,24,1,0.644289354000648,TRUE,FALSE
S17,7,105.901066548623,25,0,1.73441574400022,FALSE,FALSE
S17,5,80.2149426987335,26,0,0.654833133001375,FALSE,FALSE
S17,8,121.681025776038,27,1,1.33667066500129,FALSE,FALSE
S17,4,69.8124291010485,28,0,0.616585992998807,FALSE,FALSE
S17,7,105.901066548623,29,0,0.830841864999456,FALSE,FALSE
S17,2,52.8795429782462,30,0,0.588878868000393,FALSE,FALSE
S17,1,46.0219657443318,31,0,0.475747868000326,FALSE,FALSE
S17,6,92.1674996131094,32,0,0.631156168999951,FALSE,FALSE
S17,7,105.901066548623,33,0,1.0029730849983,FALSE,FALSE
S17,7,105.901066548623,34,0,1.83694026900048,FALSE,FALSE
S17,10,160.645261030852,35,1,0.579856561998895,FALSE,FALSE
S17,4,69.8124291010485,36,0,0.753754991001188,FALSE,FALSE
S17,8,121.681025776038,37,1,2.04522616500071,FALSE,FALSE
S17,3,60.7589445683897,38,0,0.446049998998205,FALSE,FALSE
S17,1,46.0219657443318,39,0,0.435477171999082,FALSE,FALSE
S17,8,121.681025776038,40,1,1.45196831600151,FALSE,FALSE
S17,5,80.2149426987335,41,0,1.07441987499988,FALSE,FALSE
S17,2,52.8795429782462,42,0,0.781104076999327,TRUE,FALSE
S17,3,60.7589445683897,43,0,0.362222752999514,FALSE,FALSE
S17,5,80.2149426987335,44,0,1.39083688699975,TRUE,FALSE
S17,4,69.8124291010485,45,0,0.633584778999648,FALSE,FALSE
S17,4,69.8124291010485,46,0,0.903186284000185,FALSE,FALSE
S17,6,92.1674996131094,47,0,1.98540587699972,TRUE,FALSE
S17,6,92.1674996131094,48,0,0.975198079999245,FALSE,FALSE
S17,8,121.681025776038,49,1,2.17399410300095,FALSE,FALSE
S17,6,92.1674996131094,50,0,0.670067823000863,FALSE,FALSE
S17,3,60.7589445683897,51,0,0.824208600000929,FALSE,FALSE
S17,8,121.681025776038,52,0,2.22023790099956,FALSE,FALSE
S17,8,121.681025776038,53,0,1.52483166800084,FALSE,FALSE
S17,2,52.8795429782462,54,0,0.582069852000132,FALSE,FALSE
S17,5,80.2149426987335,55,0,0.596804728000279,FALSE,FALSE
S17,5,80.2149426987335,56,0,0.679539036000278,FALSE,FALSE
S17,10,160.645261030852,57,1,0.69428533700011,FALSE,FALSE
S17,8,121.681025776038,58,0,2.43571667799915,FALSE,FALSE
S17,9,139.812303279409,59,1,0.788063033000071,FALSE,FALSE
S17,6,92.1674996131094,60,0,0.468294652999248,FALSE,FALSE
S17,4,69.8124291010485,61,0,0.494711499999539,FALSE,FALSE
S17,3,60.7589445683897,62,0,0.562880892999601,FALSE,FALSE
S17,3,60.7589445683897,63,0,0.62257176499952,FALSE,FALSE
S17,7,105.901066548623,64,0,0.662097174999872,FALSE,FALSE
S17,6,92.1674996131094,65,0,0.570173616999455,FALSE,FALSE
S18,4,69.8124291010485,1,0,0.661327326000901,FALSE,FALSE
S18,8,121.681025776038,2,1,0.709059045999311,FALSE,FALSE
S18,7,105.901066548623,3,1,0.400239313999919,FALSE,FALSE
S18,4,69.8124291010485,4,0,0.428114876000109,FALSE,FALSE
S18,6,92.1674996131094,5,1,0.462751404998926,FALSE,FALSE
S18,4,69.8124291010485,6,0,0.569584996999765,FALSE,FALSE
S18,5,80.2149426987335,7,0,0.663784779999332,FALSE,FALSE
S18,6,92.1674996131094,8,0,0.521651709999787,FALSE,FALSE
S18,8,121.681025776038,9,1,0.463423475999662,FALSE,FALSE
S18,4,69.8124291010485,10,0,0.558837880000283,FALSE,FALSE
S18,7,105.901066548623,11,1,0.474042140000165,FALSE,FALSE
S18,7,105.901066548623,12,1,0.478981705999104,FALSE,FALSE
S18,8,121.681025776038,13,1,0.482059986999957,FALSE,FALSE
S18,2,52.8795429782462,14,0,0.62881028099946,TRUE,FALSE
S18,1,46.0219657443318,15,0,0.462049726000259,FALSE,FALSE
S18,5,80.2149426987335,16,0,0.691371213999446,FALSE,FALSE
S18,5,80.2149426987335,17,0,0.668418815001132,FALSE,FALSE
S18,4,69.8124291010485,18,0,0.597991497999828,FALSE,FALSE
S18,4,69.8124291010485,19,0,0.544669142998828,FALSE,FALSE
S18,2,52.8795429782462,20,0,0.546273640999061,FALSE,FALSE
S18,9,139.812303279409,21,1,0.370854979999422,FALSE,FALSE
S18,8,121.681025776038,22,1,0.413557132998903,FALSE,FALSE
S18,6,92.1674996131094,23,1,0.458490951001295,FALSE,FALSE
S18,6,92.1674996131094,24,0,0.426085716000671,FALSE,FALSE
S18,3,60.7589445683897,25,0,0.58676932400158,FALSE,FALSE
S18,8,121.681025776038,26,1,0.397471930999018,FALSE,FALSE
S18,5,80.2149426987335,27,0,0.450693046999731,FALSE,FALSE
S18,1,46.0219657443318,28,0,0.743513196999629,FALSE,FALSE
S18,6,92.1674996131094,29,0,0.894819809000182,FALSE,FALSE
S18,10,160.645261030852,30,1,0.523987906000912,FALSE,FALSE
S18,4,69.8124291010485,31,0,0.440639030999591,FALSE,FALSE
S18,10,160.645261030852,32,1,0.558107580000069,FALSE,FALSE
S18,10,160.645261030852,33,1,0.519994358999611,FALSE,FALSE
S18,7,105.901066548623,34,0,0.667337257000327,FALSE,FALSE
S18,6,92.1674996131094,35,0,0.701310240001476,FALSE,FALSE
S18,2,52.8795429782462,36,0,0.556018545999905,FALSE,FALSE
S18,7,105.901066548623,37,1,0.336023844998635,FALSE,FALSE
S18,3,60.7589445683897,38,0,0.401684102000218,FALSE,FALSE
S18,1,46.0219657443318,39,0,0.524509290999049,FALSE,FALSE
S18,4,69.8124291010485,40,0,0.501815718998841,FALSE,FALSE
S18,3,60.7589445683897,41,0,0.472152603999348,FALSE,FALSE
S18,9,139.812303279409,42,1,0.575712577998274,FALSE,FALSE
S18,5,80.2149426987335,43,0,0.762067841000317,FALSE,FALSE
S18,3,60.7589445683897,44,0,0.54797157899884,FALSE,FALSE
S18,6,92.1674996131094,45,1,0.631859744000394,FALSE,FALSE
S18,7,105.901066548623,46,1,0.667440232000445,FALSE,FALSE
S18,2,52.8795429782462,47,0,0.526862410000831,FALSE,FALSE
S18,8,121.681025776038,48,1,0.592813111999931,FALSE,FALSE
S18,9,139.812303279409,49,1,0.803113973999643,FALSE,FALSE
S18,6,92.1674996131094,50,0,0.585986643000069,FALSE,FALSE
S18,5,80.2149426987335,51,0,0.732433935998415,FALSE,FALSE
S18,10,160.645261030852,52,1,0.439532395999777,TRUE,FALSE
S18,1,46.0219657443318,53,0,0.576545095000256,FALSE,FALSE
S18,3,60.7589445683897,54,0,0.575183000999459,FALSE,FALSE
S18,3,60.7589445683897,55,0,0.841618141001163,FALSE,FALSE
S18,5,80.2149426987335,56,0,0.438254275999498,FALSE,FALSE
S18,7,105.901066548623,57,1,0.491924787000244,FALSE,FALSE
S18,9,139.812303279409,58,1,0.472568761999355,FALSE,FALSE
S18,3,60.7589445683897,59,0,0.443835276000755,FALSE,FALSE
S18,7,105.901066548623,60,1,0.456595497000308,FALSE,FALSE
S18,5,80.2149426987335,61,0,0.609593709001274,FALSE,FALSE
S18,8,121.681025776038,62,1,0.303014333998362,FALSE,FALSE
S18,8,121.681025776038,63,1,0.502191546998802,FALSE,FALSE
S18,3,60.7589445683897,64,0,0.432762669999647,FALSE,FALSE
S18,4,69.8124291010485,65,0,0.562163575999875,FALSE,FALSE
S19,3,60.7589445683897,1,0,1.19811060099892,FALSE,FALSE
S19,5,80.2149426987335,2,0,1.2522137470005,FALSE,FALSE
S19,5,80.2149426987335,3,0,0.934237131001282,FALSE,FALSE
S19,7,105.901066548623,4,0,0.997587231999205,FALSE,FALSE
S19,8,121.681025776038,5,0,1.22189033599716,FALSE,FALSE
S19,9,139.812303279409,6,0,1.42920179299836,FALSE,FALSE
S19,7,105.901066548623,7,0,1.33673723799802,FALSE,FALSE
S19,5,80.2149426987335,8,0,1.25900446699961,FALSE,FALSE
S19,2,52.8795429782462,9,0,1.4310285749998,FALSE,FALSE
S19,8,121.681025776038,10,0,1.88224263699885,FALSE,FALSE
S19,6,92.1674996131094,11,0,1.56817965500159,FALSE,FALSE
S19,8,121.681025776038,12,1,1.78275373499855,FALSE,FALSE
S19,5,80.2149426987335,13,0,1.09426986100152,FALSE,FALSE
S19,9,139.812303279409,14,0,2.23723683400021,FALSE,FALSE
S19,4,69.8124291010485,15,0,1.18153740500202,FALSE,FALSE
S19,10,160.645261030852,16,1,1.12385621500289,FALSE,FALSE
S19,6,92.1674996131094,17,0,1.19256808000137,FALSE,FALSE
S19,5,80.2149426987335,18,0,1.5459489370005,FALSE,FALSE
S19,4,69.8124291010485,19,0,0.977457840999705,FALSE,FALSE
S19,8,121.681025776038,20,0,1.39965659299924,FALSE,FALSE
S19,3,60.7589445683897,21,0,1.42448528700334,FALSE,FALSE
S19,7,105.901066548623,22,0,2.24189143699914,FALSE,FALSE
S19,1,46.0219657443318,23,0,1.71625111699905,FALSE,FALSE
S19,3,60.7589445683897,24,0,1.16022291199988,FALSE,FALSE
S19,6,92.1674996131094,25,0,1.51343045999965,FALSE,FALSE
S19,3,60.7589445683897,26,0,1.41729554300036,FALSE,FALSE
S19,3,60.7589445683897,27,0,1.23468279200097,FALSE,FALSE
S19,8,121.681025776038,28,1,1.18321696900239,FALSE,FALSE
S19,2,52.8795429782462,29,0,1.34659903699867,FALSE,FALSE
S19,1,46.0219657443318,30,0,2.23255452900048,FALSE,FALSE
S19,4,69.8124291010485,31,0,1.37428434100002,FALSE,FALSE
S19,2,52.8795429782462,32,0,1.20886005899956,FALSE,FALSE
S19,10,160.645261030852,33,1,1.27646793800159,FALSE,FALSE
S19,5,80.2149426987335,34,0,1.32557834699764,FALSE,FALSE
S19,3,60.7589445683897,35,0,1.03563930900054,TRUE,FALSE
S19,1,46.0219657443318,36,0,1.24837036700046,TRUE,FALSE
S19,5,80.2149426987335,37,0,1.63055996500043,FALSE,FALSE
S19,8,121.681025776038,38,1,1.1337166739977,FALSE,FALSE
S19,8,121.681025776038,39,1,1.23006014899875,FALSE,FALSE
S19,4,69.8124291010485,40,0,1.41045368599953,FALSE,FALSE
S19,4,69.8124291010485,41,0,0.927410762000363,FALSE,FALSE
S19,5,80.2149426987335,42,0,1.13498484600132,FALSE,FALSE
S19,6,92.1674996131094,43,0,1.48653917399861,FALSE,FALSE
S19,1,46.0219657443318,44,0,1.73138247400129,FALSE,FALSE
S19,7,105.901066548623,45,1,1.26035077399865,FALSE,FALSE
S19,7,105.901066548623,46,1,1.771138256001,FALSE,FALSE
S19,6,92.1674996131094,47,0,2.6495837140028,TRUE,TRUE
S19,7,105.901066548623,48,0,2.43613081399963,FALSE,TRUE
S19,9,139.812303279409,49,1,1.54251210499933,FALSE,FALSE
S19,9,139.812303279409,50,1,0.917603715999576,FALSE,FALSE
S19,3,60.7589445683897,51,0,1.30607369299832,FALSE,FALSE
S19,4,69.8124291010485,52,0,0.985669658002735,FALSE,FALSE
S19,7,105.901066548623,53,0,1.83690448800189,FALSE,FALSE
S19,4,69.8124291010485,54,0,0.966245812000125,FALSE,FALSE
S19,6,92.1674996131094,55,0,1.27594754699749,FALSE,FALSE
S19,6,92.1674996131094,56,0,1.29674401800003,FALSE,FALSE
S19,10,160.645261030852,57,1,1.04661458700139,FALSE,FALSE
S19,8,121.681025776038,58,1,1.16890380999757,FALSE,FALSE
S19,7,105.901066548623,59,0,2.13020547899941,FALSE,FALSE
S19,3,60.7589445683897,60,0,1.19058864899853,FALSE,FALSE
S19,10,160.645261030852,61,1,2.33568269399984,TRUE,FALSE
S19,2,52.8795429782462,62,0,2.13400424300198,TRUE,FALSE
S19,6,92.1674996131094,63,0,1.76355660599802,FALSE,FALSE
S19,4,69.8124291010485,64,0,1.40590192600212,FALSE,FALSE
S19,3,60.7589445683897,65,0,1.27669533299922,FALSE,FALSE
S20,7,105.901066548623,1,0,2.11941165299868,FALSE,FALSE
S20,8,121.681025776038,2,1,1.33308618199953,FALSE,FALSE
S20,3,60.7589445683897,3,0,0.90344202800042706,FALSE,FALSE
S20,8,121.681025776038,4,1,0.689234168999974,FALSE,FALSE
S20,10,160.645261030852,5,1,1.09935733400198,FALSE,FALSE
S20,9,139.812303279409,6,1,0.972111906001373,FALSE,FALSE
S20,2,52.8795429782462,7,0,0.735705497001618,FALSE,FALSE
S20,10,160.645261030852,8,1,1.17880564599909,FALSE,FALSE
S20,8,121.681025776038,9,1,0.757877396001277,FALSE,FALSE
S20,5,80.2149426987335,10,0,0.685048744999222,FALSE,FALSE
S20,1,46.0219657443318,11,0,1.06729358500161,FALSE,FALSE
S20,1,46.0219657443318,12,0,0.669610760000069,FALSE,FALSE
S20,5,80.2149426987335,13,0,0.871348419997958,FALSE,FALSE
S20,5,80.2149426987335,14,0,0.765399881998746,FALSE,FALSE
S20,4,69.8124291010485,15,0,0.730734357999609,FALSE,FALSE
S20,3,60.7589445683897,16,0,0.689805932001036,FALSE,FALSE
S20,4,69.8124291010485,17,0,0.729529467000248,FALSE,FALSE
S20,2,52.8795429782462,18,0,0.852815919999557,FALSE,FALSE
S20,3,60.7589445683897,19,0,0.644370121997781,FALSE,FALSE
S20,5,80.2149426987335,20,0,0.723862831000588,FALSE,FALSE
S20,8,121.681025776038,21,1,0.966397983000206,FALSE,FALSE
S20,8,121.681025776038,22,1,0.791369045000465,FALSE,FALSE
S20,2,52.8795429782462,23,0,0.485655907003093,FALSE,FALSE
S20,4,69.8124291010485,24,0,0.870301315997494,FALSE,FALSE
S20,8,121.681025776038,25,1,0.546952718003013,FALSE,FALSE
S20,6,92.1674996131094,26,1,0.723542643001565,FALSE,FALSE
S20,6,92.1674996131094,27,0,2.93016593599896,FALSE,TRUE
S20,9,139.812303279409,28,1,0.694482581999182,FALSE,FALSE
S20,7,105.901066548623,29,1,1.88882433800245,FALSE,FALSE
S20,7,105.901066548623,30,1,0.914786004999769,TRUE,FALSE
S20,4,69.8124291010485,31,0,0.674321187001624,FALSE,FALSE
S20,4,69.8124291010485,32,0,0.984661548998702,FALSE,FALSE
S20,9,139.812303279409,33,1,1.11319529799948,FALSE,FALSE
S20,6,92.1674996131094,34,0,0.621344669001701,FALSE,FALSE
S20,4,69.8124291010485,35,0,0.860056872003042,FALSE,FALSE
S20,7,105.901066548623,36,0,0.975775439001154,TRUE,FALSE
S20,1,46.0219657443318,37,0,0.607536946998152,FALSE,FALSE
S20,8,121.681025776038,38,1,0.607576002999849,FALSE,FALSE
S20,4,69.8124291010485,39,0,0.94096610599808606,FALSE,FALSE
S20,5,80.2149426987335,40,0,1.55781590699917,FALSE,FALSE
S20,6,92.1674996131094,41,0,2.99964991799789,FALSE,TRUE
S20,3,60.7589445683897,42,0,1.08531767200111,FALSE,FALSE
S20,7,105.901066548623,43,1,3.94167693999771,TRUE,TRUE
S20,10,160.645261030852,44,1,0.674915573999897,FALSE,FALSE
S20,4,69.8124291010485,45,0,1.23135528299827,FALSE,FALSE
S20,6,92.1674996131094,46,0,3.19173835699985,FALSE,TRUE
S20,7,105.901066548623,47,1,4.17371132900007,TRUE,TRUE
S20,5,80.2149426987335,48,0,0.738470705000509,FALSE,FALSE
S20,10,160.645261030852,49,1,0.689519305997237,FALSE,FALSE
S20,5,80.2149426987335,50,0,1.46580249500039,FALSE,FALSE
S20,3,60.7589445683897,51,0,0.918416882999736,FALSE,FALSE
S20,9,139.812303279409,52,1,0.7104365089981,FALSE,FALSE
S20,3,60.7589445683897,53,0,0.603567264002777,FALSE,FALSE
S20,6,92.1674996131094,54,0,0.950729549000243,FALSE,FALSE
S20,1,46.0219657443318,55,0,1.70208579199971,FALSE,FALSE
S20,7,105.901066548623,56,1,2.07841280499997,FALSE,FALSE
S20,3,60.7589445683897,57,0,1.74506332000237,TRUE,FALSE
S20,3,60.7589445683897,58,0,0.676598218000436,FALSE,FALSE
S20,2,52.8795429782462,59,0,0.691022679999151,FALSE,FALSE
S20,6,92.1674996131094,60,0,1.5275482970028,FALSE,FALSE
S20,5,80.2149426987335,61,0,1.10012156700031,FALSE,FALSE
S20,7,105.901066548623,62,1,1.95598690200131,FALSE,FALSE
S20,6,92.1674996131094,63,0,1.00125179000315,FALSE,FALSE
S20,8,121.681025776038,64,1,0.931433073001244,FALSE,FALSE
S20,7,105.901066548623,65,1,1.68680096699973,FALSE,FALSE
S21,7,105.901066548623,1,1,0.676627157001349,FALSE,FALSE
S21,1,46.0219657443318,2,0,0.624380443001428,FALSE,FALSE
S21,5,80.2149426987335,3,1,2.38149725500261,FALSE,FALSE
S21,10,160.645261030852,4,1,0.738071632000356,FALSE,FALSE
S21,7,105.901066548623,5,1,0.698884489000193,FALSE,FALSE
S21,6,92.1674996131094,6,0,1.1488494059995,FALSE,FALSE
S21,6,92.1674996131094,7,1,1.05615612999827,FALSE,FALSE
S21,4,69.8124291010485,8,0,0.70651545200235,FALSE,FALSE
S21,5,80.2149426987335,9,0,1.70749819000048,FALSE,FALSE
S21,2,52.8795429782462,10,0,0.907483277002029,FALSE,FALSE
S21,3,60.7589445683897,11,1,1.04609041399817,FALSE,FALSE
S21,7,105.901066548623,12,1,0.672168166001939,FALSE,FALSE
S21,7,105.901066548623,13,1,0.905834399000014,FALSE,FALSE
S21,8,121.681025776038,14,1,1.17366178200245,FALSE,FALSE
S21,3,60.7589445683897,15,0,0.749420906002342,FALSE,FALSE
S21,5,80.2149426987335,16,0,0.954228135000449,FALSE,FALSE
S21,3,60.7589445683897,17,0,1.1510527749997,FALSE,FALSE
S21,3,60.7589445683897,18,0,0.907199119999859,FALSE,FALSE
S21,8,121.681025776038,19,1,0.925382763001835,FALSE,FALSE
S21,8,121.681025776038,20,1,0.737643165997724,FALSE,FALSE
S21,9,139.812303279409,21,1,0.786213240000507,FALSE,FALSE
S21,2,52.8795429782462,22,0,0.942248032002681,FALSE,FALSE
S21,9,139.812303279409,23,1,0.747039560999838,FALSE,FALSE
S21,10,160.645261030852,24,1,0.688739776000148,FALSE,FALSE
S21,3,60.7589445683897,25,0,0.91294303900213,FALSE,FALSE
S21,9,139.812303279409,26,1,0.820399784999609,FALSE,FALSE
S21,5,80.2149426987335,27,0,1.37625152400142,FALSE,FALSE
S21,8,121.681025776038,28,1,1.60240660500131,FALSE,FALSE
S21,1,46.0219657443318,29,0,0.694795782997971,FALSE,FALSE
S21,6,92.1674996131094,30,1,1.20524070600004,FALSE,FALSE
S21,10,160.645261030852,31,1,1.03477613199721,FALSE,FALSE
S21,4,69.8124291010485,32,0,1.06971444300143,FALSE,FALSE
S21,1,46.0219657443318,33,0,0.704647646001831,FALSE,FALSE
S21,7,105.901066548623,34,0,2.50978483899962,TRUE,FALSE
S21,4,69.8124291010485,35,0,1.32431888700012,FALSE,FALSE
S21,3,60.7589445683897,36,0,0.698019561001274,FALSE,FALSE
S21,4,69.8124291010485,37,0,1.65248392599824,FALSE,FALSE
S21,4,69.8124291010485,38,0,1.67037362699921,FALSE,FALSE
S21,9,139.812303279409,39,1,0.708458586999768,FALSE,FALSE
S21,6,92.1674996131094,40,0,1.84350640599951,FALSE,FALSE
S21,3,60.7589445683897,41,0,2.05977324700143,TRUE,FALSE
S21,6,92.1674996131094,42,0,1.32301901000028,FALSE,FALSE
S21,8,121.681025776038,43,1,0.808810836002522,FALSE,FALSE
S21,4,69.8124291010485,44,0,1.69587829699958,FALSE,FALSE
S21,8,121.681025776038,45,1,1.1818646899992,FALSE,FALSE
S21,7,105.901066548623,46,0,1.91033097999752,TRUE,FALSE
S21,3,60.7589445683897,47,0,0.809119596997334,FALSE,FALSE
S21,2,52.8795429782462,48,0,0.975208985000791,FALSE,FALSE
S21,2,52.8795429782462,49,0,0.843277353000303,FALSE,FALSE
S21,4,69.8124291010485,50,0,1.62422041800164,FALSE,FALSE
S21,6,92.1674996131094,51,1,0.683015119000629,FALSE,FALSE
S21,7,105.901066548623,52,1,0.685326786999212,FALSE,FALSE
S21,5,80.2149426987335,53,1,2.19152109100105,FALSE,FALSE
S21,5,80.2149426987335,54,0,2.27369370100132,FALSE,FALSE
S21,6,92.1674996131094,55,1,2.53413151999848,TRUE,FALSE
S21,5,80.2149426987335,56,0,1.30987133999952,FALSE,FALSE
S21,4,69.8124291010485,57,0,0.969025971997326,FALSE,FALSE
S21,7,105.901066548623,58,1,0.935914761001186,FALSE,FALSE
S21,10,160.645261030852,59,1,0.91924597400066,FALSE,FALSE
S21,8,121.681025776038,60,1,2.09536027800277,FALSE,FALSE
S21,6,92.1674996131094,61,0,0.971184318001178,FALSE,FALSE
S21,1,46.0219657443318,62,0,1.14887908300079,TRUE,FALSE
S21,8,121.681025776038,63,0,2.7107650959988,FALSE,FALSE
S21,5,80.2149426987335,64,0,0.787507670000196,FALSE,FALSE
S21,7,105.901066548623,65,1,0.650163056998281,FALSE,FALSE
S22,4,69.8124291010485,1,0,0.750519965000422,FALSE,FALSE
S22,1,46.0219657443318,2,0,0.66887398900144,FALSE,FALSE
S22,8,121.681025776038,3,1,0.618159177000052,FALSE,FALSE
S22,7,105.901066548623,4,1,1.02726271699794,FALSE,FALSE
S22,5,80.2149426987335,5,0,0.927355266998347,FALSE,FALSE
S22,5,80.2149426987335,6,1,1.05388119599957,FALSE,FALSE
S22,7,105.901066548623,7,0,1.3325387190016,FALSE,FALSE
S22,7,105.901066548623,8,1,1.27412435200313,FALSE,FALSE
S22,10,160.645261030852,9,1,0.993103360000532,FALSE,FALSE
S22,6,92.1674996131094,10,0,1.10387918200286,FALSE,FALSE
S22,7,105.901066548623,11,0,1.06625005000024,FALSE,FALSE
S22,8,121.681025776038,12,1,0.853985994999675,FALSE,FALSE
S22,8,121.681025776038,13,0,1.22656950199962,FALSE,FALSE
S22,3,60.7589445683897,14,0,0.680323074000626,FALSE,FALSE
S22,3,60.7589445683897,15,0,0.535592438001913,FALSE,FALSE
S22,2,52.8795429782462,16,0,0.587545228998351,FALSE,FALSE
S22,5,80.2149426987335,17,0,0.949950524998712,FALSE,FALSE
S22,2,52.8795429782462,18,0,0.60396196000147,FALSE,FALSE
S22,1,46.0219657443318,19,0,0.515562974000204,FALSE,FALSE
S22,3,60.7589445683897,20,0,0.613915451998764,FALSE,FALSE
S22,7,105.901066548623,21,0,1.44161365100081,FALSE,FALSE
S22,1,46.0219657443318,22,0,0.574650201997429,FALSE,FALSE
S22,6,92.1674996131094,23,0,1.35695274499813,FALSE,FALSE
S22,6,92.1674996131094,24,1,0.913648536999972,FALSE,FALSE
S22,2,52.8795429782462,25,0,0.500332618998073,TRUE,FALSE
S22,4,69.8124291010485,26,0,0.593587269999261,FALSE,FALSE
S22,3,60.7589445683897,27,0,0.637355437000224,FALSE,FALSE
S22,8,121.681025776038,28,1,0.871366416999081,FALSE,FALSE
S22,6,92.1674996131094,29,0,1.3628636909998,FALSE,FALSE
S22,4,69.8124291010485,30,0,1.20569855000213,TRUE,FALSE
S22,10,160.645261030852,31,1,0.547127664001891,FALSE,FALSE
S22,7,105.901066548623,32,1,1.02717871200002,FALSE,FALSE
S22,6,92.1674996131094,33,1,1.2792335769991,FALSE,FALSE
S22,9,139.812303279409,34,1,0.63578964199769,FALSE,FALSE
S22,5,80.2149426987335,35,0,0.713790795001842,FALSE,FALSE
S22,9,139.812303279409,36,1,0.618158400997345,FALSE,FALSE
S22,2,52.8795429782462,37,0,0.615740795998136,FALSE,FALSE
S22,7,105.901066548623,38,1,0.587196128999494,TRUE,FALSE
S22,4,69.8124291010485,39,0,0.852034308001748,FALSE,FALSE
S22,5,80.2149426987335,40,0,0.729140954998002,FALSE,FALSE
S22,3,60.7589445683897,41,1,0.680331471001409,FALSE,FALSE
S22,6,92.1674996131094,42,1,1.42960495499938,FALSE,FALSE
S22,8,121.681025776038,43,1,0.557601178999903,FALSE,FALSE
S22,4,69.8124291010485,44,0,0.786440170999413,FALSE,FALSE
S22,4,69.8124291010485,45,0,0.732636469998397,FALSE,FALSE
S22,8,121.681025776038,46,1,0.618753912000102,FALSE,FALSE
S22,1,46.0219657443318,47,0,0.910785998999927,FALSE,FALSE
S22,10,160.645261030852,48,1,0.815885618998436,FALSE,FALSE
S22,8,121.681025776038,49,1,0.706143851999514,FALSE,FALSE
S22,5,80.2149426987335,50,0,1.76293706400247,TRUE,FALSE
S22,6,92.1674996131094,51,0,1.3761653420006,FALSE,FALSE
S22,3,60.7589445683897,52,0,0.61067170699971,FALSE,FALSE
S22,4,69.8124291010485,53,0,1.06776363800236,FALSE,FALSE
S22,6,92.1674996131094,54,0,0.818504421000398,FALSE,FALSE
S22,5,80.2149426987335,55,0,0.742045601000427,FALSE,FALSE
S22,8,121.681025776038,56,0,1.27291424800205,FALSE,FALSE
S22,9,139.812303279409,57,1,0.749863509001443,FALSE,FALSE
S22,4,69.8124291010485,58,0,0.745298800000455,FALSE,FALSE
S22,7,105.901066548623,59,0,1.04475830799856,FALSE,FALSE
S22,3,60.7589445683897,60,0,0.58133061999979,FALSE,FALSE
S22,10,160.645261030852,61,1,0.0272139219996461,TRUE,TRUE
S22,9,139.812303279409,62,1,0.820820256001753,FALSE,FALSE
S22,3,60.7589445683897,63,0,0.504048607999721,FALSE,FALSE
S22,5,80.2149426987335,64,0,0.584331501002453,FALSE,FALSE
S22,4,69.8124291010485,65,0,0.71157631999813,FALSE,FALSE
S23,3,60.7589445683897,1,0,0.627570689000095,FALSE,FALSE
S23,4,69.8124291010485,2,0,0.678532637999979,FALSE,FALSE
S23,3,60.7589445683897,3,0,0.654569175000006,FALSE,FALSE
S23,7,105.901066548623,4,0,0.952294014000017,FALSE,FALSE
S23,6,92.1674996131094,5,0,1.97626359600008,FALSE,FALSE
S23,2,52.8795429782462,6,0,0.551297504000104,FALSE,FALSE
S23,3,60.7589445683897,7,0,0.435954126999832,FALSE,FALSE
S23,5,80.2149426987335,8,0,0.674952167000129,FALSE,FALSE
S23,10,160.645261030852,9,1,0.620919965999974,FALSE,FALSE
S23,3,60.7589445683897,10,0,0.471761594999862,FALSE,FALSE
S23,8,121.681025776038,11,0,1.47858592000011,FALSE,FALSE
S23,1,46.0219657443318,12,0,0.485229431999869,FALSE,FALSE
S23,8,121.681025776038,13,0,1.62207303199989,FALSE,FALSE
S23,10,160.645261030852,14,1,1.61963651700012,FALSE,FALSE
S23,9,139.812303279409,15,1,1.2105011619999,FALSE,FALSE
S23,2,52.8795429782462,16,0,0.630494916000089,FALSE,FALSE
S23,7,105.901066548623,17,0,0.903256140999929,FALSE,FALSE
S23,5,80.2149426987335,18,0,0.950366467999856,FALSE,FALSE
S23,7,105.901066548623,19,0,4.8071018999999104,TRUE,TRUE
S23,7,105.901066548623,20,1,0.94953221500009,FALSE,FALSE
S23,9,139.812303279409,21,1,0.99828314399997,FALSE,FALSE
S23,8,121.681025776038,22,1,1.1028728199999,FALSE,FALSE
S23,8,121.681025776038,23,1,1.65001857900006,FALSE,FALSE
S23,5,80.2149426987335,24,1,3.46068359699984,TRUE,TRUE
S23,3,60.7589445683897,25,0,0.644618907999984,FALSE,FALSE
S23,6,92.1674996131094,26,0,1.05780158800007,FALSE,FALSE
S23,7,105.901066548623,27,0,0.754566394999983,FALSE,FALSE
S23,8,121.681025776038,28,0,1.21467936799991,FALSE,FALSE
S23,6,92.1674996131094,29,0,0.66228506099992,FALSE,FALSE
S23,4,69.8124291010485,30,0,0.526654990000225,FALSE,FALSE
S23,4,69.8124291010485,31,0,0.433947136999905,FALSE,FALSE
S23,1,46.0219657443318,32,0,0.614353598999969,FALSE,FALSE
S23,5,80.2149426987335,33,0,0.768401433999998,FALSE,FALSE
S23,4,69.8124291010485,34,0,1.10191508999992,FALSE,FALSE
S23,7,105.901066548623,35,0,0.907392371000014,FALSE,FALSE
S23,4,69.8124291010485,36,0,1.10752735200003,FALSE,FALSE
S23,8,121.681025776038,37,0,2.29388217600012,FALSE,FALSE
S23,7,105.901066548623,38,0,0.607294493999916,TRUE,FALSE
S23,2,52.8795429782462,39,0,0.609884929000145,FALSE,FALSE
S23,2,52.8795429782462,40,0,0.490392720000045,FALSE,FALSE
S23,10,160.645261030852,41,0,0.455205523999894,FALSE,FALSE
S23,5,80.2149426987335,42,0,0.976548632000004,FALSE,FALSE
S23,8,121.681025776038,43,1,1.13405548000014,FALSE,FALSE
S23,3,60.7589445683897,44,0,0.490838021999934,FALSE,FALSE
S23,3,60.7589445683897,45,0,0.660055592999925,FALSE,FALSE
S23,9,139.812303279409,46,0,3.07573981300015,FALSE,TRUE
S23,4,69.8124291010485,47,0,1.08807192000017,FALSE,FALSE
S23,9,139.812303279409,48,0,4.39175204599997,FALSE,TRUE
S23,6,92.1674996131094,49,0,0.998395890999973,FALSE,FALSE
S23,3,60.7589445683897,50,0,0.539112354999816,FALSE,FALSE
S23,1,46.0219657443318,51,0,0.526627921999989,FALSE,FALSE
S23,4,69.8124291010485,52,0,0.39565698499996,FALSE,FALSE
S23,6,92.1674996131094,53,1,2.28431364700009,FALSE,FALSE
S23,8,121.681025776038,54,1,0.899264652000056,FALSE,FALSE
S23,4,69.8124291010485,55,0,0.990199609999991,FALSE,FALSE
S23,5,80.2149426987335,56,0,1.70560905100001,FALSE,FALSE
S23,5,80.2149426987335,57,0,0.522543478999978,FALSE,FALSE
S23,1,46.0219657443318,58,0,0.837686190000113,FALSE,FALSE
S23,6,92.1674996131094,59,0,1.25441829700003,FALSE,FALSE
S23,5,80.2149426987335,60,0,0.839515599000151,FALSE,FALSE
S23,6,92.1674996131094,61,0,1.78457185499997,FALSE,FALSE
S23,6,92.1674996131094,62,0,1.04862887299987,FALSE,FALSE
S23,10,160.645261030852,63,1,1.16036538499998,FALSE,FALSE
S23,7,105.901066548623,64,0,0.924355357999957,FALSE,FALSE
S23,3,60.7589445683897,65,0,0.573638150000079,FALSE,FALSE
S24,8,121.681025776038,1,0,1.05238342499979,FALSE,FALSE
S24,10,160.645261030852,2,1,0.698962405000202,FALSE,FALSE
S24,4,69.8124291010485,3,0,0.768688050000492,FALSE,FALSE
S24,5,80.2149426987335,4,0,0.762155936999989,FALSE,FALSE
S24,3,60.7589445683897,5,0,0.685854117999952,FALSE,FALSE
S24,8,121.681025776038,6,1,0.788153535000674,FALSE,FALSE
S24,1,46.0219657443318,7,0,0.789973042000383,FALSE,FALSE
S24,8,121.681025776038,8,1,0.878054300000258,FALSE,FALSE
S24,8,121.681025776038,9,1,0.739793392000138,FALSE,FALSE
S24,7,105.901066548623,10,0,0.850752561999798,FALSE,FALSE
S24,5,80.2149426987335,11,0,0.768422432000079,FALSE,FALSE
S24,5,80.2149426987335,12,0,0.836485347000234,FALSE,FALSE
S24,4,69.8124291010485,13,0,0.817248686000312,FALSE,FALSE
S24,4,69.8124291010485,14,0,0.868382655999994,FALSE,FALSE
S24,7,105.901066548623,15,1,1.07417888100008,FALSE,FALSE
S24,7,105.901066548623,16,1,1.14654016399982,FALSE,FALSE
S24,9,139.812303279409,17,1,0.777954924999904,FALSE,FALSE
S24,6,92.1674996131094,18,0,1.56674766700053,TRUE,TRUE
S24,9,139.812303279409,19,1,0.776122684000256,FALSE,FALSE
S24,7,105.901066548623,20,0,1.58574694700019,FALSE,TRUE
S24,6,92.1674996131094,21,0,0.863750753000204,FALSE,FALSE
S24,5,80.2149426987335,22,0,0.774358333999771,FALSE,FALSE
S24,7,105.901066548623,23,1,1.14991215600003,FALSE,FALSE
S24,8,121.681025776038,24,1,0.792582009000398,FALSE,FALSE
S24,4,69.8124291010485,25,0,0.740967808000278,FALSE,FALSE
S24,1,46.0219657443318,26,0,0.781944981999914,FALSE,FALSE
S24,4,69.8124291010485,27,0,0.790693662999729,FALSE,FALSE
S24,10,160.645261030852,28,1,0.728090229999907,FALSE,FALSE
S24,5,80.2149426987335,29,0,0.733305818999725,FALSE,FALSE
S24,8,121.681025776038,30,1,0.786847682999905,FALSE,FALSE
S24,5,80.2149426987335,31,0,0.768955407999783,FALSE,FALSE
S24,2,52.8795429782462,32,0,0.774693174000276,FALSE,FALSE
S24,7,105.901066548623,33,1,0.870896801000526,FALSE,FALSE
S24,3,60.7589445683897,34,0,0.811017382999125,FALSE,FALSE
S24,2,52.8795429782462,35,0,0.839501222000763,FALSE,FALSE
S24,5,80.2149426987335,36,0,1.24031664199993,TRUE,FALSE
S24,9,139.812303279409,37,1,0.732592254999872,FALSE,FALSE
S24,2,52.8795429782462,38,0,0.763647364999997,FALSE,FALSE
S24,3,60.7589445683897,39,0,0.78596983800071,FALSE,FALSE
S24,5,80.2149426987335,40,0,0.901988682999217,FALSE,FALSE
S24,6,92.1674996131094,41,0,1.23024177099978,FALSE,FALSE
S24,3,60.7589445683897,42,0,0.985844300999815,FALSE,FALSE
S24,3,60.7589445683897,43,0,0.847884810999858,FALSE,FALSE
S24,7,105.901066548623,44,1,0.861130128000696,FALSE,FALSE
S24,4,69.8124291010485,45,0,0.816834000999734,FALSE,FALSE
S24,3,60.7589445683897,46,0,0.764777450000111,FALSE,FALSE
S24,6,92.1674996131094,47,0,0.829315489999317,FALSE,FALSE
S24,7,105.901066548623,48,0,1.07218682299936,FALSE,FALSE
S24,1,46.0219657443318,49,0,1.01541188800002,FALSE,FALSE
S24,1,46.0219657443318,50,0,0.911293170000135,FALSE,FALSE
S24,6,92.1674996131094,51,0,1.08011609000005,FALSE,FALSE
S24,6,92.1674996131094,52,0,0.9412920879995,FALSE,FALSE
S24,4,69.8124291010485,53,0,0.841682600999775,FALSE,FALSE
S24,6,92.1674996131094,54,0,1.0499312109996,FALSE,FALSE
S24,2,52.8795429782462,55,0,0.90801930500038,FALSE,FALSE
S24,10,160.645261030852,56,1,0.68690919600067,FALSE,FALSE
S24,3,60.7589445683897,57,0,0.720752107999942,FALSE,FALSE
S24,10,160.645261030852,58,1,0.718166359999486,FALSE,FALSE
S24,9,139.812303279409,59,1,0.69312975899993,FALSE,FALSE
S24,8,121.681025776038,60,1,0.955459421000342,FALSE,FALSE
S24,3,60.7589445683897,61,0,0.919941724000637,FALSE,FALSE
S24,4,69.8124291010485,62,0,0.801010594000218,FALSE,FALSE
S24,8,121.681025776038,63,1,1.14596696100034,FALSE,FALSE
S24,6,92.1674996131094,64,0,1.03439383000023,FALSE,FALSE
S24,8,121.681025776038,65,1,1.1037441010003,FALSE,FALSE
S25,8,121.681025776038,1,1,1.23840050400031,TRUE,FALSE
S25,3,60.7589445683897,2,0,1.10681297300107,FALSE,FALSE
S25,7,105.901066548623,3,0,1.70313566799996,FALSE,FALSE
S25,10,160.645261030852,4,1,0.896925178998572,TRUE,FALSE
S25,5,80.2149426987335,5,0,1.08061665500099,FALSE,FALSE
S25,4,69.8124291010485,6,0,1.17398216100082,FALSE,FALSE
S25,2,52.8795429782462,7,0,1.08738349899977,FALSE,FALSE
S25,9,139.812303279409,8,1,1.02201847000106,FALSE,FALSE
S25,8,121.681025776038,9,1,1.12375720800082,TRUE,FALSE
S25,2,52.8795429782462,10,0,1.05640666700128,FALSE,FALSE
S25,5,80.2149426987335,11,0,1.44703300600122,FALSE,FALSE
S25,8,121.681025776038,12,1,0.810336893999192,FALSE,FALSE
S25,9,139.812303279409,13,1,0.988841444999707,FALSE,FALSE
S25,3,60.7589445683897,14,0,0.91068240200002,FALSE,FALSE
S25,6,92.1674996131094,15,0,1.41866738299905,FALSE,FALSE
S25,6,92.1674996131094,16,0,1.17801271700046,FALSE,FALSE
S25,3,60.7589445683897,17,0,1.41529765599989,FALSE,FALSE
S25,3,60.7589445683897,18,0,1.01806942300027,FALSE,FALSE
S25,8,121.681025776038,19,1,0.818124532999718,FALSE,FALSE
S25,4,69.8124291010485,20,0,0.885236032001558,FALSE,FALSE
S25,6,92.1674996131094,21,0,1.78846255799908,FALSE,TRUE
S25,5,80.2149426987335,22,0,1.11409855199963,FALSE,FALSE
S25,3,60.7589445683897,23,0,1.27761622500111,FALSE,FALSE
S25,1,46.0219657443318,24,0,0.826747547000195,FALSE,FALSE
S25,6,92.1674996131094,25,0,0.971605855000234,FALSE,FALSE
S25,8,121.681025776038,26,1,0.808350256000267,FALSE,FALSE
S25,6,92.1674996131094,27,0,1.45628131000012,FALSE,FALSE
S25,7,105.901066548623,28,1,0.81327454500024,FALSE,FALSE
S25,5,80.2149426987335,29,0,0.738642301001164,FALSE,FALSE
S25,9,139.812303279409,30,1,0.876595210998858,FALSE,FALSE
S25,7,105.901066548623,31,1,1.26773310600038,FALSE,FALSE
S25,8,121.681025776038,32,1,0.784640579000552,FALSE,FALSE
S25,7,105.901066548623,33,1,1.50112185499893,FALSE,FALSE
S25,6,92.1674996131094,34,0,0.794657487000222,FALSE,FALSE
S25,9,139.812303279409,35,1,1.06730473800053,FALSE,FALSE
S25,6,92.1674996131094,36,0,0.810376691999409,FALSE,FALSE
S25,1,46.0219657443318,37,0,0.733543684998949,FALSE,FALSE
S25,3,60.7589445683897,38,0,0.83545142499861,FALSE,FALSE
S25,4,69.8124291010485,39,0,1.0022257239998,FALSE,FALSE
S25,3,60.7589445683897,40,0,0.884253539999918,FALSE,FALSE
S25,5,80.2149426987335,41,0,0.954618845998993,FALSE,FALSE
S25,2,52.8795429782462,42,0,1.01855901499948,FALSE,FALSE
S25,7,105.901066548623,43,1,0.826655393999317,FALSE,FALSE
S25,7,105.901066548623,44,1,0.78522844500003,FALSE,FALSE
S25,1,46.0219657443318,45,0,0.845401136000874,FALSE,FALSE
S25,8,121.681025776038,46,1,0.700646120998499,FALSE,FALSE
S25,5,80.2149426987335,47,0,0.784990123000171,FALSE,FALSE
S25,6,92.1674996131094,48,1,0.846189427000354,FALSE,FALSE
S25,4,69.8124291010485,49,0,0.706078268000056,FALSE,FALSE
S25,5,80.2149426987335,50,0,0.8597131789993,FALSE,FALSE
S25,5,80.2149426987335,51,0,0.72008605299925,FALSE,FALSE
S25,7,105.901066548623,52,1,0.696466674999101,FALSE,FALSE
S25,3,60.7589445683897,53,0,0.703311474000657,FALSE,FALSE
S25,10,160.645261030852,54,1,0.745794610000303,FALSE,FALSE
S25,2,52.8795429782462,55,0,0.714487776000169,TRUE,FALSE
S25,1,46.0219657443318,56,0,0.759749580000062,FALSE,FALSE
S25,4,69.8124291010485,57,0,1.04623736100075,FALSE,FALSE
S25,4,69.8124291010485,58,0,0.794679847000225,FALSE,FALSE
S25,7,105.901066548623,59,1,0.818830703999993,FALSE,FALSE
S25,4,69.8124291010485,60,0,0.807634709000922,FALSE,FALSE
S25,10,160.645261030852,61,1,0.733991208999214,FALSE,FALSE
S25,10,160.645261030852,62,1,0.718824170000516,FALSE,FALSE
S25,4,69.8124291010485,63,0,0.860580358999869,FALSE,FALSE
S25,8,121.681025776038,64,1,0.847743599000751,FALSE,FALSE
S25,8,121.681025776038,65,1,0.907578446000116,FALSE,FALSE
