Subject,Condition,Block,Start,StairId,BranchStart,Trial,Distance,Response,Reversal,RT,OutlierDist,OutlierSubj
S01,simple,2,near,1,near,1,30.3,1,0,0.829785119000007,FALSE,FALSE
S01,simple,2,near,1,near,2,26.4,1,0,0.968079082999907,FALSE,FALSE
S01,simple,2,near,1,near,3,23,1,0,0.924377909999976,FALSE,FALSE
S01,simple,2,near,1,near,4,20,0,1,0.808996584999932,FALSE,FALSE
S01,simple,2,near,1,near,5,23,0,0,1.15096311799994,FALSE,FALSE
S01,simple,2,near,1,near,6,26.4,0,0,1.11922552099998,FALSE,FALSE
S01,simple,2,near,1,near,7,30.3,0,0,0.914741613000047,FALSE,FALSE
S01,simple,2,near,1,near,8,34.9,1,2,0.951455428999907,FALSE,FALSE
S01,simple,2,near,1,near,9,30.3,0,3,1.08538802600003,FALSE,FALSE
S01,simple,2,near,1,near,10,34.9,0,0,1.31584058699991,FALSE,FALSE
S01,simple,2,near,1,near,11,37.4,1,4,1.50321595100002,FALSE,FALSE
S01,simple,2,near,1,near,12,34.9,1,0,1.05337252699996,FALSE,FALSE
S01,simple,2,near,1,near,13,32.5,0,5,1.19055985700004,FALSE,FALSE
S01,simple,2,near,1,near,14,34.9,0,0,0.716189919000044,TRUE,FALSE
S01,simple,2,near,1,near,15,37.4,1,6,1.26058611399992,FALSE,FALSE
S01,simple,2,near,1,near,16,34.9,0,7,0.9610277889999,FALSE,FALSE
S01,simple,2,near,1,near,17,37.4,1,8,0.909501714999919,FALSE,FALSE
S01,simple,2,near,1,near,18,34.9,1,0,1.06614291799997,FALSE,FALSE
S01,simple,2,near,1,near,19,32.5,0,9,1.28546028300002,FALSE,FALSE
S01,simple,2,near,1,near,20,34.9,1,10,0.906599094999933,FALSE,FALSE
S01,simple,2,near,1,near,21,32.5,1,0,0.743798118999962,FALSE,FALSE
S01,simple,2,near,1,near,22,30.3,0,11,0.770704457000079,FALSE,FALSE
S01,simple,2,near,1,near,23,32.5,0,0,0.86156582000001,FALSE,FALSE
S01,simple,2,near,1,near,24,34.9,1,12,1.21207947899995,FALSE,FALSE
S01,simple,3,far,1,far,1,280,1,0,0.719908845000077,FALSE,FALSE
S01,simple,3,far,1,far,2,243.7,1,0,0.734684238,FALSE,FALSE
S01,simple,3,far,1,far,3,212.1,1,0,0.848716029000002,FALSE,FALSE
S01,simple,3,far,1,far,4,184.6,1,0,0.920229388999928,FALSE,FALSE
S01,simple,3,far,1,far,5,160.6,1,0,0.934282804999953,FALSE,FALSE
S01,simple,3,far,1,far,6,139.8,1,0,0.953326772000082,FALSE,FALSE
S01,simple,3,far,1,far,7,121.7,1,0,0.856375052999965,FALSE,FALSE
S01,simple,3,far,1,far,8,105.9,1,0,0.847774272000038,FALSE,FALSE
S01,simple,3,far,1,far,9,92.2,0,1,1.53588990399999,FALSE,FALSE
S01,simple,3,far,1,far,10,105.9,0,0,1.02555479,FALSE,FALSE
S01,simple,3,far,1,far,11,121.7,0,0,1.45008214300003,FALSE,FALSE
S01,simple,3,far,1,far,12,139.8,1,2,1.50029874000006,FALSE,FALSE
S01,simple,3,far,1,far,13,121.7,1,0,0.96567092500004,FALSE,FALSE
S01,simple,3,far,1,far,14,105.9,1,0,1.33583738799996,FALSE,FALSE
S01,simple,3,far,1,far,15,92.2,0,3,0.827419558999964,FALSE,FALSE
S01,simple,3,far,1,far,16,105.9,0,0,0.791464375000032,FALSE,FALSE
S01,simple,3,far,1,far,17,113.5,0,0,0.987244710000027,FALSE,FALSE
S01,simple,3,far,1,far,18,121.7,0,0,1.22566338700005,FALSE,FALSE
S01,simple,3,far,1,far,19,130.4,0,0,1.48850813000001,FALSE,FALSE
S01,simple,3,far,1,far,20,139.8,1,4,1.1286171910001,FALSE,FALSE
S01,simple,3,far,1,far,21,130.4,1,0,1.1653236300001,FALSE,FALSE
S01,simple,3,far,1,far,22,121.7,1,0,1.17318316500018,FALSE,FALSE
S01,simple,3,far,1,far,23,113.5,1,0,1.26495838899996,FALSE,FALSE
S01,simple,3,far,1,far,24,105.9,0,5,1.00835281899981,FALSE,FALSE
S01,simple,3,far,1,far,25,113.5,0,0,1.07821398500005,FALSE,FALSE
S01,simple,3,far,1,far,26,121.7,0,0,0.937939695000068,FALSE,FALSE
S01,simple,3,far,1,far,27,130.4,0,0,1.06691470500004,FALSE,FALSE
S01,simple,3,far,1,far,28,139.8,0,0,1.23217793799995,FALSE,FALSE
S01,simple,3,far,1,far,29,149.9,1,6,1.34864265299984,FALSE,FALSE
S01,simple,3,far,1,far,30,139.8,1,0,1.23463149899999,FALSE,FALSE
S01,simple,3,far,1,far,31,130.4,1,0,1.16571168799987,FALSE,FALSE
S01,simple,3,far,1,far,32,121.7,1,0,1.19808540100007,FALSE,FALSE
S01,simple,3,far,1,far,33,113.5,1,0,1.37677338799995,FALSE,FALSE
S01,simple,3,far,1,far,34,105.9,0,7,1.01614762200006,FALSE,FALSE
S01,simple,3,far,1,far,35,113.5,0,0,0.794373375000077,FALSE,FALSE
S01,simple,3,far,1,far,36,121.7,0,0,0.878245621999895,FALSE,FALSE
S01,simple,3,far,1,far,37,130.4,0,0,1.09167062700021,FALSE,FALSE
S01,simple,3,far,1,far,38,139.8,1,8,0.88774837699998,FALSE,FALSE
S01,simple,3,far,1,far,39,130.4,1,0,1.26008259200012,FALSE,FALSE
S01,simple,3,far,1,far,40,121.7,1,0,0.793786712999918,FALSE,FALSE
S01,simple,3,far,1,far,41,113.5,1,0,0.999936198999876,FALSE,FALSE
S01,simple,3,far,1,far,42,105.9,1,0,0.781192219999866,FALSE,FALSE
S01,simple,3,far,1,far,43,98.8,1,0,1.23694808100004,FALSE,FALSE
S01,simple,3,far,1,far,44,92.2,0,9,1.31420833399989,FALSE,FALSE
S01,simple,3,far,1,far,45,98.8,0,0,0.862796921999916,FALSE,FALSE
S01,simple,3,far,1,far,46,105.9,0,0,0.842147629999999,FALSE,FALSE
S01,simple,3,far,1,far,47,113.5,0,0,0.866778298000099,FALSE,FALSE
S01,simple,3,far,1,far,48,121.7,0,0,1.01772005900011,FALSE,FALSE
S01,simple,3,far,1,far,49,130.4,1,10,1.26926857500007,FALSE,FALSE
S01,simple,3,far,1,far,50,121.7,1,0,1.30093729400005,FALSE,FALSE
S01,simple,3,far,1,far,51,113.5,1,0,1.40272738900012,FALSE,FALSE
S01,simple,3,far,1,far,52,105.9,0,11,1.19250948299987,FALSE,FALSE
S01,simple,3,far,1,far,53,113.5,0,0,1.46442290999994,FALSE,FALSE
S01,simple,3,far,1,far,54,121.7,1,12,1.92186205899998,FALSE,FALSE
S01,simple,4,far,1,far,1,280,1,0,0.892578939000032,FALSE,FALSE
S01,simple,4,far,1,far,2,243.7,1,0,1.01407157000017,FALSE,FALSE
S01,simple,4,far,1,far,3,212.1,1,0,0.882748401000072,FALSE,FALSE
S01,simple,4,far,1,far,4,184.6,1,0,1.15780088699989,FALSE,FALSE
S01,simple,4,far,1,far,5,160.6,1,0,1.0103527660001,FALSE,FALSE
S01,simple,4,far,1,far,6,139.8,1,0,0.870883913999933,FALSE,FALSE
S01,simple,4,far,1,far,7,121.7,1,0,1.22411694099992,FALSE,FALSE
S01,simple,4,far,1,far,8,105.9,0,1,1.23932061400001,FALSE,FALSE
S01,simple,4,far,1,far,9,121.7,0,0,1.22597647500015,FALSE,FALSE
S01,simple,4,far,1,far,10,139.8,1,2,1.39435779300015,FALSE,FALSE
S01,simple,4,far,1,far,11,121.7,0,3,0.990176063000035,FALSE,FALSE
S01,simple,4,far,1,far,12,139.8,0,0,1.3759214380002,FALSE,FALSE
S01,simple,4,far,1,far,13,149.9,1,4,0.734919432999959,FALSE,FALSE
S01,simple,4,far,1,far,14,139.8,1,0,0.8425523599999,FALSE,FALSE
S01,simple,4,far,1,far,15,130.4,1,0,1.12570462300005,FALSE,FALSE
S01,simple,4,far,1,far,16,121.7,0,5,1.34229495399995,FALSE,FALSE
S01,simple,4,far,1,far,17,130.4,0,0,1.34871208200002,FALSE,FALSE
S01,simple,4,far,1,far,18,139.8,1,6,0.896683552000013,FALSE,FALSE
S01,simple,4,far,1,far,19,130.4,0,7,1.02669595800012,FALSE,FALSE
S01,simple,4,far,1,far,20,139.8,1,8,1.40897495800004,FALSE,FALSE
S01,simple,4,far,1,far,21,130.4,0,9,0.915550621999955,FALSE,FALSE
S01,simple,4,far,1,far,22,139.8,0,0,1.19898104100002,FALSE,FALSE
S01,simple,4,far,1,far,23,149.9,1,10,0.815146111000104,FALSE,FALSE
S01,simple,4,far,1,far,24,139.8,1,0,1.14414606200012,FALSE,FALSE
S01,simple,4,far,1,far,25,130.4,1,0,0.82384846900004,FALSE,FALSE
S01,simple,4,far,1,far,26,121.7,1,0,1.09188119800001,FALSE,FALSE
S01,simple,4,far,1,far,27,113.5,0,11,0.945061460000034,FALSE,FALSE
S01,simple,4,far,1,far,28,121.7,1,12,1.56756401199982,FALSE,FALSE
S02,simple,1,near,1,near,1,30.3,0,0,0.561580691000017,FALSE,FALSE
S02,simple,1,near,1,near,2,34.9,0,0,0.616236328000014,FALSE,FALSE
S02,simple,1,near,1,near,3,40.1,0,0,0.63354195500051,FALSE,FALSE
S02,simple,1,near,1,near,4,46,0,0,0.545449653000105,FALSE,FALSE
S02,simple,1,near,1,near,5,52.9,0,0,0.512918247000016,FALSE,FALSE
S02,simple,1,near,1,near,6,60.8,0,0,0.793329385999641,FALSE,FALSE
S02,simple,1,near,1,near,7,69.8,0,0,0.979525759999888,FALSE,FALSE
S02,simple,1,near,1,near,8,80.2,0,0,0.555755454999598,TRUE,FALSE
S02,simple,1,near,1,near,9,92.2,1,1,1.44249731299988,FALSE,FALSE
S02,simple,1,near,1,near,10,80.2,0,2,1.49194789400008,FALSE,FALSE
S02,simple,1,near,1,near,11,92.2,1,3,2.12468407899996,FALSE,FALSE
S02,simple,1,near,1,near,12,80.2,0,4,1.45997945699946,FALSE,FALSE
S02,simple,1,near,1,near,13,86,1,5,1.31337090899979,FALSE,FALSE
S02,simple,1,near,1,near,14,80.2,1,0,1.91536931300016,FALSE,FALSE
S02,simple,1,near,1,near,15,74.8,0,6,0.77093104100004,FALSE,FALSE
S02,simple,1,near,1,near,16,80.2,1,7,1.71131633700043,FALSE,FALSE
S02,simple,1,near,1,near,17,74.8,0,8,1.16715020399988,FALSE,FALSE
S02,simple,1,near,1,near,18,80.2,0,0,2.07022579099976,FALSE,FALSE
S02,simple,1,near,1,near,19,86,0,0,3.0507408630001,FALSE,FALSE
S02,simple,1,near,1,near,20,92.2,1,9,0.959526276999895,FALSE,FALSE
S02,simple,1,near,1,near,21,86,0,10,3.10496652899928,FALSE,FALSE
S02,simple,1,near,1,near,22,92.2,0,0,2.65395311199973,FALSE,FALSE
S02,simple,1,near,1,near,23,98.8,1,11,0.781861598000432,FALSE,FALSE
S02,simple,1,near,1,near,24,92.2,1,0,3.57149956099965,FALSE,FALSE
S02,simple,1,near,1,near,25,86,0,12,1.28618312199978,FALSE,FALSE
S02,simple,2,far,1,far,1,280,1,0,0.74380523400032,FALSE,FALSE
S02,simple,2,far,1,far,2,243.7,1,0,1.19500165800036,FALSE,FALSE
S02,simple,2,far,1,far,3,212.1,1,0,0.654033206000349,FALSE,FALSE
S02,simple,2,far,1,far,4,184.6,1,0,0.751982761000363,FALSE,FALSE
S02,simple,2,far,1,far,5,160.6,1,0,0.864040886999646,FALSE,FALSE
S02,simple,2,far,1,far,6,139.8,1,0,0.96434957000019506,FALSE,FALSE
S02,simple,2,far,1,far,7,121.7,1,0,1.51290151699959,FALSE,FALSE
S02,simple,2,far,1,far,8,105.9,1,0,2.35231937900062,FALSE,FALSE
S02,simple,2,far,1,far,9,92.2,0,1,0.542426266999428,FALSE,FALSE
S02,simple,2,far,1,far,10,105.9,0,0,0.696449678000135,FALSE,FALSE
S02,simple,2,far,1,far,11,121.7,1,2,0.825626921000548,FALSE,FALSE
S02,simple,2,far,1,far,12,105.9,0,3,0.865563872999701,FALSE,FALSE
S02,simple,2,far,1,far,13,121.7,1,4,0.845749998999963,FALSE,FALSE
S02,simple,2,far,1,far,14,113.5,1,0,1.294026562,FALSE,FALSE
S02,simple,2,far,1,far,15,105.9,0,5,1.05808166999941,FALSE,FALSE
S02,simple,2,far,1,far,16,113.5,1,6,1.39285807899978,FALSE,FALSE
S02,simple,2,far,1,far,17,105.9,0,7,3.43774084800043,FALSE,FALSE
S02,simple,2,far,1,far,18,113.5,1,8,0.973935744999835,FALSE,FALSE
S02,simple,2,far,1,far,19,105.9,1,0,2.04500379199999,FALSE,FALSE
S02,simple,2,far,1,far,20,98.8,0,9,0.827811988000576,FALSE,FALSE
S02,simple,2,far,1,far,21,105.9,0,0,3.15860741699998,FALSE,FALSE
S02,simple,2,far,1,far,22,113.5,1,10,0.725291017999552,FALSE,FALSE
S02,simple,2,far,1,far,23,105.9,1,0,2.60232747000009,FALSE,FALSE
S02,simple,2,far,1,far,24,98.8,0,11,2.39990117899924,FALSE,FALSE
S02,simple,2,far,1,far,25,105.9,0,0,2.54329233499993,FALSE,FALSE
S02,simple,2,far,1,far,26,113.5,1,12,0.85048888899928,FALSE,FALSE
S02,simple,3,near,1,near,1,30.3,0,0,0.5560091440002,FALSE,FALSE
S02,simple,3,near,1,near,2,34.9,0,0,0.478778548999799,FALSE,FALSE
S02,simple,3,near,1,near,3,40.1,0,0,0.548304562999874,FALSE,FALSE
S02,simple,3,near,1,near,4,46,0,0,1.53996384999937,FALSE,FALSE
S02,simple,3,near,1,near,5,52.9,0,0,0.967839007000293,FALSE,FALSE
S02,simple,3,near,1,near,6,60.8,0,0,0.519336764999935,FALSE,FALSE
S02,simple,3,near,1,near,7,69.8,0,0,0.876698529999885,FALSE,FALSE
S02,simple,3,near,1,near,8,80.2,0,0,0.931711088000156,FALSE,FALSE
S02,simple,3,near,1,near,9,92.2,0,0,1.61282886299978,FALSE,FALSE
S02,simple,3,near,1,near,10,105.9,0,0,1.95597451100002,FALSE,FALSE
S02,simple,3,near,1,near,11,121.7,1,1,0.674705274999724,FALSE,FALSE
S02,simple,3,near,1,near,12,105.9,1,0,1.10708227099985,FALSE,FALSE
S02,simple,3,near,1,near,13,92.2,0,2,0.989123977999952,FALSE,FALSE
S02,simple,3,near,1,near,14,105.9,0,0,1.99087319699993,FALSE,FALSE
S02,simple,3,near,1,near,15,113.5,1,3,0.682893513000636,FALSE,FALSE
S02,simple,3,near,1,near,16,105.9,1,0,2.14321477999965,FALSE,FALSE
S02,simple,3,near,1,near,17,98.8,1,0,1.3458934500004,FALSE,FALSE
S02,simple,3,near,1,near,18,92.2,0,4,1.27598853099971,FALSE,FALSE
S02,simple,3,near,1,near,19,98.8,1,5,1.64703015400028,FALSE,FALSE
S02,simple,3,near,1,near,20,92.2,0,6,1.50038511499952,FALSE,FALSE
S02,simple,3,near,1,near,21,98.8,0,0,1.87541268000041,FALSE,FALSE
S02,simple,3,near,1,near,22,105.9,1,7,7.6011333739998,TRUE,TRUE
S02,simple,3,near,1,near,23,98.8,0,8,0.701535076000255,FALSE,FALSE
S02,simple,3,near,1,near,24,105.9,0,0,1.52944860499974,FALSE,FALSE
S02,simple,3,near,1,near,25,113.5,1,9,0.976586350000616,FALSE,FALSE
S02,simple,3,near,1,near,26,105.9,1,0,1.01088979699944,FALSE,FALSE
S02,simple,3,near,1,near,27,98.8,0,10,2.36469485099951,FALSE,FALSE
S02,simple,3,near,1,near,28,105.9,1,11,4.35285147200011,FALSE,FALSE
S02,simple,3,near,1,near,29,98.8,0,12,0.825628126999618,FALSE,FALSE
S02,simple,4,far,1,far,1,280,1,0,0.657221768999989,FALSE,FALSE
S02,simple,4,far,1,far,2,243.7,1,0,0.82687753800019,FALSE,FALSE
S02,simple,4,far,1,far,3,212.1,1,0,1.05353113300043,FALSE,FALSE
S02,simple,4,far,1,far,4,184.6,1,0,0.879012702999717,FALSE,FALSE
S02,simple,4,far,1,far,5,160.6,1,0,0.896593946999928,FALSE,FALSE
S02,simple,4,far,1,far,6,139.8,1,0,1.52288505999968,FALSE,FALSE
S02,simple,4,far,1,far,7,121.7,1,0,2.90424051399987,FALSE,FALSE
S02,simple,4,far,1,far,8,105.9,0,1,1.72618809699998,FALSE,FALSE
S02,simple,4,far,1,far,9,121.7,0,0,1.99991789600062,FALSE,FALSE
S02,simple,4,far,1,far,10,139.8,1,2,1.22084657199957,FALSE,FALSE
S02,simple,4,far,1,far,11,121.7,1,0,2.21939310000016,FALSE,FALSE
S02,simple,4,far,1,far,12,113.5,0,3,2.74724763100039,FALSE,FALSE
S02,simple,4,far,1,far,13,121.7,1,4,2.85679331899973,FALSE,FALSE
S02,simple,4,far,1,far,14,113.5,0,5,1.64498097700016,FALSE,FALSE
S02,simple,4,far,1,far,15,121.7,0,0,2.29280904200004,FALSE,FALSE
S02,simple,4,far,1,far,16,130.4,1,6,1.95577927100021,FALSE,FALSE
S02,simple,4,far,1,far,17,121.7,1,0,4.12884351800039,FALSE,FALSE
S02,simple,4,far,1,far,18,113.5,0,7,1.24632755600032,FALSE,FALSE
S02,simple,4,far,1,far,19,121.7,0,0,2.95192061000034,FALSE,FALSE
S02,simple,4,far,1,far,20,130.4,1,8,1.46269274499991,FALSE,FALSE
S02,simple,4,far,1,far,21,121.7,1,0,1.6526782459996,FALSE,FALSE
S02,simple,4,far,1,far,22,113.5,1,0,7.1508032339998,FALSE,FALSE
S02,simple,4,far,1,far,23,105.9,0,9,1.24270455499936,FALSE,FALSE
S02,simple,4,far,1,far,24,113.5,0,0,2.3770816289998,FALSE,FALSE
S02,simple,4,far,1,far,25,121.7,1,10,2.05384018099994,FALSE,FALSE
S02,simple,4,far,1,far,26,113.5,0,11,2.5716701350002,FALSE,FALSE
S02,simple,4,far,1,far,27,121.7,1,12,1.95626041299965,FALSE,FALSE
S03,simple,1,near,1,near,1,30.3,1,0,1.82120422299977,FALSE,FALSE
S03,simple,1,near,1,near,2,26.4,0,1,4.10525871000027,FALSE,FALSE
S03,simple,1,near,1,near,3,30.3,1,2,1.24286133400074,FALSE,FALSE
S03,simple,1,near,1,near,4,26.4,1,0,0.944915371999741,FALSE,FALSE
S03,simple,1,near,1,near,5,24.6,1,0,1.36743873399973,FALSE,FALSE
S03,simple,1,near,1,near,6,23,1,0,1.42151457799991,FALSE,FALSE
S03,simple,1,near,1,near,7,21.4,1,0,1.20866306500011,FALSE,FALSE
S03,simple,1,near,1,near,8,20,0,3,1.47092438799973,FALSE,FALSE
S03,simple,1,near,1,near,9,21.4,0,0,1.78664432799997,FALSE,FALSE
S03,simple,1,near,1,near,10,23,0,0,1.48303574999954,FALSE,FALSE
S03,simple,1,near,1,near,11,24.6,0,0,2.39383285700023,FALSE,FALSE
S03,simple,1,near,1,near,12,26.4,0,0,2.33241065699985,FALSE,FALSE
S03,simple,1,near,1,near,13,28.3,0,0,2.28875432399946,FALSE,FALSE
S03,simple,1,near,1,near,14,30.3,0,0,1.76070865099973,FALSE,FALSE
S03,simple,1,near,1,near,15,32.5,0,0,1.8810994359992,FALSE,FALSE
S03,simple,1,near,1,near,16,34.9,0,0,1.69867310399968,FALSE,FALSE
S03,simple,1,near,1,near,17,37.4,0,0,2.36507076900034,FALSE,FALSE
S03,simple,1,near,1,near,18,40.1,0,0,1.69158446399979,FALSE,FALSE
S03,simple,1,near,1,near,19,42.9,0,0,1.06750416299928,FALSE,FALSE
S03,simple,1,near,1,near,20,46,0,0,1.19346250099989,FALSE,FALSE
S03,simple,1,near,1,near,21,49.3,0,0,1.78857782799969,FALSE,FALSE
S03,simple,1,near,1,near,22,52.9,0,0,1.24427089599976,FALSE,FALSE
S03,simple,1,near,1,near,23,56.7,0,0,1.04707837499973,FALSE,FALSE
S03,simple,1,near,1,near,24,60.8,0,0,2.01786933399944,FALSE,FALSE
S03,simple,1,near,1,near,25,65.1,0,0,1.19557754299967,FALSE,FALSE
S03,simple,1,near,1,near,26,69.8,0,0,1.89947331799976,FALSE,FALSE
S03,simple,1,near,1,near,27,74.8,1,4,1.38556445199993,FALSE,FALSE
S03,simple,1,near,1,near,28,69.8,1,0,1.81262442600018,FALSE,FALSE
S03,simple,1,near,1,near,29,65.1,1,0,1.83495038599995,FALSE,FALSE
S03,simple,1,near,1,near,30,60.8,1,0,1.99146836799991,FALSE,FALSE
S03,simple,1,near,1,near,31,56.7,1,0,1.1035421850001501,FALSE,FALSE
S03,simple,1,near,1,near,32,52.9,1,0,1.03089696100051,FALSE,FALSE
S03,simple,1,near,1,near,33,49.3,0,5,1.06588663399998,FALSE,FALSE
S03,simple,1,near,1,near,34,52.9,0,0,1.71124618100021,FALSE,FALSE
S03,simple,1,near,1,near,35,56.7,0,0,2.3518605119998,FALSE,FALSE
S03,simple,1,near,1,near,36,60.8,0,0,1.44262602900017,FALSE,FALSE
S03,simple,1,near,1,near,37,65.1,1,6,1.50039223400017,FALSE,FALSE
S03,simple,1,near,1,near,38,60.8,0,7,1.84910817999935,FALSE,FALSE
S03,simple,1,near,1,near,39,65.1,0,0,1.46265050499915,FALSE,FALSE
S03,simple,1,near,1,near,40,69.8,0,0,1.54682766299993,FALSE,FALSE
S03,simple,1,near,1,near,41,74.8,1,8,0.974515120000433,FALSE,FALSE
S03,simple,1,near,1,near,42,69.8,1,0,1.79000226000062,FALSE,FALSE
S03,simple,1,near,1,near,43,65.1,0,9,1.42461128299965,FALSE,FALSE
S03,simple,1,near,1,near,44,69.8,1,10,2.21965038000053,FALSE,FALSE
S03,simple,1,near,1,near,45,65.1,0,11,1.83714963999955,FALSE,FALSE
S03,simple,1,near,1,near,46,69.8,0,0,1.34634417699999,FALSE,FALSE
S03,simple,1,near,1,near,47,74.8,0,0,1.78249269900061,FALSE,FALSE
S03,simple,1,near,1,near,48,80.2,1,12,1.26082147400029,FALSE,FALSE
S03,simple,2,far,1,far,1,280,1,0,1.44286904599994,FALSE,FALSE
S03,simple,2,far,1,far,2,243.7,1,0,0.721244031999959,FALSE,FALSE
S03,simple,2,far,1,far,3,212.1,1,0,0.843750518999514,FALSE,FALSE
S03,simple,2,far,1,far,4,184.6,1,0,0.811120287000449,FALSE,FALSE
S03,simple,2,far,1,far,5,160.6,1,0,0.696624310000516,FALSE,FALSE
S03,simple,2,far,1,far,6,139.8,1,0,0.775732691000485,FALSE,FALSE
S03,simple,2,far,1,far,7,121.7,1,0,0.830986007999854,FALSE,FALSE
S03,simple,2,far,1,far,8,105.9,1,0,1.69652236000002,FALSE,FALSE
S03,simple,2,far,1,far,9,92.2,0,1,1.62246918399978,FALSE,FALSE
S03,simple,2,far,1,far,10,105.9,1,2,2.75992727300036,TRUE,TRUE
S03,simple,2,far,1,far,11,92.2,1,0,0.943569156999729,FALSE,FALSE
S03,simple,2,far,1,far,12,86,1,0,1.80443585600005,TRUE,FALSE
S03,simple,2,far,1,far,13,80.2,0,3,0.948891490000278,FALSE,FALSE
S03,simple,2,far,1,far,14,86,0,0,0.999671515000045,FALSE,FALSE
S03,simple,2,far,1,far,15,92.2,1,4,1.51395688199955,FALSE,FALSE
S03,simple,2,far,1,far,16,86,1,0,1.09344415699979,FALSE,FALSE
S03,simple,2,far,1,far,17,80.2,1,0,1.04872298900045,FALSE,FALSE
S03,simple,2,far,1,far,18,74.8,0,5,0.923835864000466,FALSE,FALSE
S03,simple,2,far,1,far,19,80.2,0,0,0.816505801999483,FALSE,FALSE
S03,simple,2,far,1,far,20,86,0,0,0.900837963999948,FALSE,FALSE
S03,simple,2,far,1,far,21,92.2,0,0,0.943616905999988,FALSE,FALSE
S03,simple,2,far,1,far,22,98.8,1,6,1.02201185100057,FALSE,FALSE
S03,simple,2,far,1,far,23,92.2,1,0,1.49693221000052,FALSE,FALSE
S03,simple,2,far,1,far,24,86,1,0,1.13615946600021,FALSE,FALSE
S03,simple,2,far,1,far,25,80.2,1,0,1.06055403499977,FALSE,FALSE
S03,simple,2,far,1,far,26,74.8,0,7,2.27106453499982,TRUE,TRUE
S03,simple,2,far,1,far,27,80.2,0,0,0.814304329999686,FALSE,FALSE
S03,simple,2,far,1,far,28,86,0,0,0.809126272999492,FALSE,FALSE
S03,simple,2,far,1,far,29,92.2,0,0,0.889448109000114,FALSE,FALSE
S03,simple,2,far,1,far,30,98.8,0,0,1.79805424500046,TRUE,FALSE
S03,simple,2,far,1,far,31,105.9,1,8,0.825082407000082,FALSE,FALSE
S03,simple,2,far,1,far,32,98.8,1,0,0.830542659999992,FALSE,FALSE
S03,simple,2,far,1,far,33,92.2,1,0,0.873431541000173,FALSE,FALSE
S03,simple,2,far,1,far,34,86,1,0,1.02876098600063,FALSE,FALSE
S03,simple,2,far,1,far,35,80.2,1,0,0.997457335000036,FALSE,FALSE
S03,simple,2,far,1,far,36,74.8,0,9,0.859218005000002,FALSE,FALSE
S03,simple,2,far,1,far,37,80.2,0,0,0.869066534000012,FALSE,FALSE
S03,simple,2,far,1,far,38,86,0,0,1.19319984899994,FALSE,FALSE
S03,simple,2,far,1,far,39,92.2,1,10,0.928680065000663,FALSE,FALSE
S03,simple,2,far,1,far,40,86,1,0,1.59081285899993,FALSE,FALSE
S03,simple,2,far,1,far,41,80.2,1,0,1.27132460800021,FALSE,FALSE
S03,simple,2,far,1,far,42,74.8,1,0,1.06434958199952,FALSE,FALSE
S03,simple,2,far,1,far,43,69.8,0,11,0.812885146000554,FALSE,FALSE
S03,simple,2,far,1,far,44,74.8,0,0,0.621675927000069,TRUE,FALSE
S03,simple,2,far,1,far,45,80.2,0,0,0.692837956999938,FALSE,FALSE
S03,simple,2,far,1,far,46,86,0,0,0.749260155999764,FALSE,FALSE
S03,simple,2,far,1,far,47,92.2,1,12,0.7811872150005,FALSE,FALSE
S03,simple,3,far,1,far,1,280,1,0,0.722618332999446,FALSE,FALSE
S03,simple,3,far,1,far,2,243.7,1,0,0.487309080000159,FALSE,TRUE
S03,simple,3,far,1,far,3,212.1,1,0,0.595959689000665,FALSE,FALSE
S03,simple,3,far,1,far,4,184.6,1,0,0.625112036000246,FALSE,FALSE
S03,simple,3,far,1,far,5,160.6,1,0,0.818341707999934,FALSE,FALSE
S03,simple,3,far,1,far,6,139.8,1,0,0.708554416999505,FALSE,FALSE
S03,simple,3,far,1,far,7,121.7,1,0,0.761506048999763,FALSE,FALSE
S03,simple,3,far,1,far,8,105.9,0,1,0.930198990000463,FALSE,FALSE
S03,simple,3,far,1,far,9,121.7,1,2,0.970084485999905,FALSE,FALSE
S03,simple,3,far,1,far,10,105.9,0,3,0.738526487999479,FALSE,FALSE
S03,simple,3,far,1,far,11,113.5,0,0,1.48132582699964,FALSE,FALSE
S03,simple,3,far,1,far,12,121.7,1,4,0.806041980999908,FALSE,FALSE
S03,simple,3,far,1,far,13,113.5,1,0,1.28555166899969,FALSE,FALSE
S03,simple,3,far,1,far,14,105.9,1,0,0.72687363499972,FALSE,FALSE
S03,simple,3,far,1,far,15,98.8,1,0,0.889921015999789,FALSE,FALSE
S03,simple,3,far,1,far,16,92.2,1,0,0.901379934000033,FALSE,FALSE
S03,simple,3,far,1,far,17,86,0,5,1.1602789429998701,FALSE,FALSE
S03,simple,3,far,1,far,18,92.2,1,6,1.12466640000002,FALSE,FALSE
S03,simple,3,far,1,far,19,86,1,0,0.9663242609995,FALSE,FALSE
S03,simple,3,far,1,far,20,80.2,0,7,0.942769495999528,FALSE,FALSE
S03,simple,3,far,1,far,21,86,0,0,1.07330774499951,FALSE,FALSE
S03,simple,3,far,1,far,22,92.2,0,0,1.23424030199931,FALSE,FALSE
S03,simple,3,far,1,far,23,98.8,1,8,0.988795315000061,FALSE,FALSE
S03,simple,3,far,1,far,24,92.2,1,0,0.884100838999984,FALSE,FALSE
S03,simple,3,far,1,far,25,86,0,9,0.666457143999651,FALSE,FALSE
S03,simple,3,far,1,far,26,92.2,0,0,0.940739583999857,FALSE,FALSE
S03,simple,3,far,1,far,27,98.8,0,0,1.36741502699988,FALSE,FALSE
S03,simple,3,far,1,far,28,105.9,0,0,0.790188603000388,FALSE,FALSE
S03,simple,3,far,1,far,29,113.5,1,10,0.853665984000145,FALSE,FALSE
S03,simple,3,far,1,far,30,105.9,1,0,0.781388909999805,FALSE,FALSE
S03,simple,3,far,1,far,31,98.8,1,0,0.831352916000469,FALSE,FALSE
S03,simple,3,far,1,far,32,92.2,1,0,1.18105282900069,FALSE,FALSE
S03,simple,3,far,1,far,33,86,1,0,1.05203326500032,FALSE,FALSE
S03,simple,3,far,1,far,34,80.2,0,11,1.40308268900026,FALSE,FALSE
S03,simple,3,far,1,far,35,86,0,0,0.913910226999178,FALSE,FALSE
S03,simple,3,far,1,far,36,92.2,0,0,1.29283891200066,FALSE,FALSE
S03,simple,3,far,1,far,37,98.8,1,12,0.688439171000027,FALSE,FALSE
S03,simple,4,near,1,near,1,30.3,0,0,0.734804730999713,FALSE,FALSE
S03,simple,4,near,1,near,2,34.9,0,0,0.637984318000235,FALSE,FALSE
S03,simple,4,near,1,near,3,40.1,0,0,0.749037374000181,FALSE,FALSE
S03,simple,4,near,1,near,4,46,0,0,0.854468402999373,FALSE,FALSE
S03,simple,4,near,1,near,5,52.9,0,0,1.29348178200053,FALSE,FALSE
S03,simple,4,near,1,near,6,60.8,1,1,1.09667473300033,FALSE,FALSE
S03,simple,4,near,1,near,7,52.9,0,2,0.695797633000439,TRUE,FALSE
S03,simple,4,near,1,near,8,60.8,0,0,0.56612235800003,TRUE,FALSE
S03,simple,4,near,1,near,9,65.1,0,0,0.839137938999556,FALSE,FALSE
S03,simple,4,near,1,near,10,69.8,0,0,0.629496983000536,FALSE,FALSE
S03,simple,4,near,1,near,11,74.8,0,0,0.733209889999671,FALSE,FALSE
S03,simple,4,near,1,near,12,80.2,1,3,0.882188887000666,FALSE,FALSE
S03,simple,4,near,1,near,13,74.8,1,0,0.719252568999764,FALSE,FALSE
S03,simple,4,near,1,near,14,69.8,1,0,0.722386684000412,FALSE,FALSE
S03,simple,4,near,1,near,15,65.1,1,0,0.78522371199960606,FALSE,FALSE
S03,simple,4,near,1,near,16,60.8,0,4,1.44345938700008,FALSE,FALSE
S03,simple,4,near,1,near,17,65.1,0,0,1.08238806099962,FALSE,FALSE
S03,simple,4,near,1,near,18,69.8,0,0,0.862655085999904,FALSE,FALSE
S03,simple,4,near,1,near,19,74.8,0,0,0.910211147000155,FALSE,FALSE
S03,simple,4,near,1,near,20,80.2,0,0,0.670239478999974,FALSE,FALSE
S03,simple,4,near,1,near,21,86,0,0,0.94705885500025,FALSE,FALSE
S03,simple,4,near,1,near,22,92.2,1,5,0.741454134000378,FALSE,FALSE
S03,simple,4,near,1,near,23,86,1,0,1.14115383700027,FALSE,FALSE
S03,simple,4,near,1,near,24,80.2,1,0,0.915673547000551,FALSE,FALSE
S03,simple,4,near,1,near,25,74.8,1,0,0.644233965999774,FALSE,FALSE
S03,simple,4,near,1,near,26,69.8,1,0,1.0055780090006,FALSE,FALSE
S03,simple,4,near,1,near,27,65.1,0,6,1.18352038600005,FALSE,FALSE
S03,simple,4,near,1,near,28,69.8,0,0,0.715141720000247,FALSE,FALSE
S03,simple,4,near,1,near,29,74.8,0,0,1.16125974599981,FALSE,FALSE
S03,simple,4,near,1,near,30,80.2,0,0,1.04616062099922,FALSE,FALSE
S03,simple,4,near,1,near,31,86,0,0,0.833276077999471,FALSE,FALSE
S03,simple,4,near,1,near,32,92.2,1,7,0.868134839000049,FALSE,FALSE
S03,simple,4,near,1,near,33,86,1,0,0.814065165000102,FALSE,FALSE
S03,simple,4,near,1,near,34,80.2,1,0,0.507107062999239,FALSE,FALSE
S03,simple,4,near,1,near,35,74.8,0,8,2.01769500099999,FALSE,FALSE
S03,simple,4,near,1,near,36,80.2,0,0,1.15607230700061,FALSE,FALSE
S03,simple,4,near,1,near,37,86,1,9,0.958936597000502,FALSE,FALSE
S03,simple,4,near,1,near,38,80.2,1,0,1.65238150099958,FALSE,FALSE
S03,simple,4,near,1,near,39,74.8,0,10,0.939758204999634,FALSE,FALSE
S03,simple,4,near,1,near,40,80.2,0,0,0.814931367000099,FALSE,FALSE
S03,simple,4,near,1,near,41,86,0,0,1.36555625599976,FALSE,FALSE
S03,simple,4,near,1,near,42,92.2,1,11,0.993477261000407,FALSE,FALSE
S03,simple,4,near,1,near,43,86,1,0,0.409761892000461,TRUE,FALSE
S03,simple,4,near,1,near,44,80.2,1,0,0.753146219999508,FALSE,FALSE
S03,simple,4,near,1,near,45,74.8,0,12,0.838567537000017,FALSE,FALSE
S04,simple,1,far,1,far,1,280,1,0,1.03076180799872,FALSE,FALSE
S04,simple,1,far,1,far,2,243.7,1,0,1.13265153499924,FALSE,FALSE
S04,simple,1,far,1,far,3,212.1,1,0,1.6771133860002,FALSE,FALSE
S04,simple,1,far,1,far,4,184.6,1,0,2.0671551000014,FALSE,FALSE
S04,simple,1,far,1,far,5,160.6,1,0,3.58722802199918,FALSE,FALSE
S04,simple,1,far,1,far,6,139.8,0,1,1.36514909899961,FALSE,FALSE
S04,simple,1,far,1,far,7,160.6,1,2,3.4117710190003,FALSE,FALSE
S04,simple,1,far,1,far,8,139.8,0,3,2.22951307299991,TRUE,FALSE
S04,simple,1,far,1,far,9,149.9,0,0,5.33490799500032,FALSE,FALSE
S04,simple,1,far,1,far,10,160.6,1,4,1.17428247299904,FALSE,FALSE
S04,simple,1,far,1,far,11,149.9,0,5,3.26949525199961,FALSE,FALSE
S04,simple,1,far,1,far,12,160.6,1,6,2.15933341699929,FALSE,FALSE
S04,simple,1,far,1,far,13,149.9,0,7,2.49179350200029,FALSE,FALSE
S04,simple,1,far,1,far,14,160.6,0,0,1.4983776299996,FALSE,FALSE
S04,simple,1,far,1,far,15,172.2,1,8,1.98966569000004,FALSE,FALSE
S04,simple,1,far,1,far,16,160.6,1,0,2.62318011199932,FALSE,FALSE
S04,simple,1,far,1,far,17,149.9,0,9,3.27994039799887,FALSE,FALSE
S04,simple,1,far,1,far,18,160.6,1,10,0.993056256000273,FALSE,FALSE
S04,simple,1,far,1,far,19,149.9,1,0,2.15915909199975,FALSE,FALSE
S04,simple,1,far,1,far,20,139.8,0,11,1.02736628999992,FALSE,FALSE
S04,simple,1,far,1,far,21,149.9,1,12,1.0095357070004,FALSE,FALSE
S04,simple,2,far,1,far,1,280,1,0,1.12947790399994,FALSE,FALSE
S04,simple,2,far,1,far,2,243.7,1,0,0.883482707000439,FALSE,FALSE
S04,simple,2,far,1,far,3,212.1,1,0,1.22663034200013,FALSE,FALSE
S04,simple,2,far,1,far,4,184.6,1,0,1.55518159099847,FALSE,FALSE
S04,simple,2,far,1,far,5,160.6,0,1,1.00220509199971,FALSE,FALSE
S04,simple,2,far,1,far,6,184.6,1,2,1.50833349599998,FALSE,FALSE
S04,simple,2,far,1,far,7,160.6,0,3,5.83982460499828,FALSE,FALSE
S04,simple,2,far,1,far,8,172.2,1,4,1.31388948400127,FALSE,FALSE
S04,simple,2,far,1,far,9,160.6,1,0,1.16766584300058,FALSE,FALSE
S04,simple,2,far,1,far,10,149.9,0,5,0.998053461000382,FALSE,FALSE
S04,simple,2,far,1,far,11,160.6,1,6,1.11310466800023,FALSE,FALSE
S04,simple,2,far,1,far,12,149.9,1,0,6.59811048399933,FALSE,FALSE
S04,simple,2,far,1,far,13,139.8,0,7,1.05796050499885,FALSE,FALSE
S04,simple,2,far,1,far,14,149.9,1,8,1.09036466300131,FALSE,FALSE
S04,simple,2,far,1,far,15,139.8,0,9,0.676326019000044,FALSE,FALSE
S04,simple,2,far,1,far,16,149.9,0,0,3.3812461159996,FALSE,FALSE
S04,simple,2,far,1,far,17,160.6,1,10,0.670505919999414,FALSE,FALSE
S04,simple,2,far,1,far,18,149.9,1,0,1.11083569899893,FALSE,FALSE
S04,simple,2,far,1,far,19,139.8,0,11,0.936130441999921,FALSE,FALSE
S04,simple,2,far,1,far,20,149.9,1,12,1.16549395999937,FALSE,FALSE
S04,simple,3,near,1,near,1,30.3,0,0,0.908477154998764,FALSE,FALSE
S04,simple,3,near,1,near,2,34.9,0,0,0.699669511999673,FALSE,FALSE
S04,simple,3,near,1,near,3,40.1,0,0,0.678060112999447,FALSE,FALSE
S04,simple,3,near,1,near,4,46,0,0,0.625955266001256,FALSE,FALSE
S04,simple,3,near,1,near,5,52.9,0,0,0.911659900999439,FALSE,FALSE
S04,simple,3,near,1,near,6,60.8,0,0,0.835208499000146,FALSE,FALSE
S04,simple,3,near,1,near,7,69.8,0,0,0.962006072999429,FALSE,FALSE
S04,simple,3,near,1,near,8,80.2,0,0,1.17086484199899,FALSE,FALSE
S04,simple,3,near,1,near,9,92.2,0,0,1.06593858100132,FALSE,FALSE
S04,simple,3,near,1,near,10,105.9,0,0,1.42496429900166,FALSE,FALSE
S04,simple,3,near,1,near,11,121.7,1,1,0.676284176000991,FALSE,FALSE
S04,simple,3,near,1,near,12,105.9,1,0,1.01070887399874,FALSE,FALSE
S04,simple,3,near,1,near,13,92.2,0,2,4.0043908509997,FALSE,FALSE
S04,simple,3,near,1,near,14,105.9,0,0,1.74828607000018,FALSE,FALSE
S04,simple,3,near,1,near,15,113.5,1,3,1.61459542100056,FALSE,FALSE
S04,simple,3,near,1,near,16,105.9,1,0,0.7037391319991,FALSE,FALSE
S04,simple,3,near,1,near,17,98.8,0,4,1.71457189399916,FALSE,FALSE
S04,simple,3,near,1,near,18,105.9,1,5,1.03650735699921,FALSE,FALSE
S04,simple,3,near,1,near,19,98.8,0,6,5.77419380699939,FALSE,TRUE
S04,simple,3,near,1,near,20,105.9,1,7,2.75768532499933,TRUE,FALSE
S04,simple,3,near,1,near,21,98.8,0,8,0.90647211400028,FALSE,FALSE
S04,simple,3,near,1,near,22,105.9,0,0,1.05696380900008,FALSE,FALSE
S04,simple,3,near,1,near,23,113.5,1,9,4.09607145399968,FALSE,FALSE
S04,simple,3,near,1,near,24,105.9,1,0,1.10414149099961,FALSE,FALSE
S04,simple,3,near,1,near,25,98.8,0,10,3.87552069099911,FALSE,FALSE
S04,simple,3,near,1,near,26,105.9,1,11,0.951054925999415,FALSE,FALSE
S04,simple,3,near,1,near,27,98.8,0,12,4.39740318900112,FALSE,FALSE
S04,simple,4,near,1,near,1,30.3,0,0,0.962706301999788,FALSE,FALSE
S04,simple,4,near,1,near,2,34.9,0,0,0.782114665998961,FALSE,FALSE
S04,simple,4,near,1,near,3,40.1,0,0,0.886177365999174,FALSE,FALSE
S04,simple,4,near,1,near,4,46,0,0,0.789071377001164,FALSE,FALSE
S04,simple,4,near,1,near,5,52.9,0,0,0.667418109000209,FALSE,FALSE
S04,simple,4,near,1,near,6,60.8,0,0,0.866393128000709,FALSE,FALSE
S04,simple,4,near,1,near,7,69.8,0,0,1.13498558100036,FALSE,FALSE
S04,simple,4,near,1,near,8,80.2,0,0,2.19862737300173,FALSE,FALSE
S04,simple,4,near,1,near,9,92.2,1,1,0.581322339001417,FALSE,FALSE
S04,simple,4,near,1,near,10,80.2,1,0,0.635542234998866,FALSE,FALSE
S04,simple,4,near,1,near,11,69.8,1,0,0.95335986399914,FALSE,FALSE
S04,simple,4,near,1,near,12,60.8,1,0,2.46584594399974,FALSE,FALSE
S04,simple,4,near,1,near,13,52.9,0,2,0.667845944000874,FALSE,FALSE
S04,simple,4,near,1,near,14,60.8,0,0,1.01007801100059,FALSE,FALSE
S04,simple,4,near,1,near,15,65.1,0,0,1.55822427800013,FALSE,FALSE
S04,simple,4,near,1,near,16,69.8,1,3,0.798036221000075,FALSE,FALSE
S04,simple,4,near,1,near,17,65.1,1,0,6.6670369600015,FALSE,TRUE
S04,simple,4,near,1,near,18,60.8,0,4,0.590234084000258,FALSE,FALSE
S04,simple,4,near,1,near,19,65.1,1,5,0.909274796000318,FALSE,FALSE
S04,simple,4,near,1,near,20,60.8,0,6,1.78469164199851,FALSE,FALSE
S04,simple,4,near,1,near,21,65.1,0,0,0.909368104999885,FALSE,FALSE
S04,simple,4,near,1,near,22,69.8,0,0,1.47539225000037,FALSE,FALSE
S04,simple,4,near,1,near,23,74.8,1,7,1.28351280599964,FALSE,FALSE
S04,simple,4,near,1,near,24,69.8,1,0,0.656704692999483,FALSE,FALSE
S04,simple,4,near,1,near,25,65.1,1,0,1.95130034000067,FALSE,FALSE
S04,simple,4,near,1,near,26,60.8,0,8,3.94344213600016,FALSE,FALSE
S04,simple,4,near,1,near,27,65.1,0,0,0.818612824999946,FALSE,FALSE
S04,simple,4,near,1,near,28,69.8,1,9,1.31947943600062,FALSE,FALSE
S04,simple,4,near,1,near,29,65.1,0,10,3.62369150400082,FALSE,FALSE
S04,simple,4,near,1,near,30,69.8,1,11,0.566737058999934,FALSE,FALSE
S04,simple,4,near,1,near,31,65.1,1,0,0.970379049000258,FALSE,FALSE
S04,simple,4,near,1,near,32,60.8,0,12,2.54838633899999,FALSE,FALSE
S05,simple,1,near,1,near,1,30.3,0,0,0.817242118000649,FALSE,FALSE
S05,simple,1,near,1,near,2,34.9,1,1,0.75499385799958,FALSE,FALSE
S05,simple,1,near,1,near,3,30.3,0,2,0.712631017000604,FALSE,FALSE
S05,simple,1,near,1,near,4,34.9,0,0,0.735043585000312,FALSE,FALSE
S05,simple,1,near,1,near,5,37.4,0,0,0.786054172000149,FALSE,FALSE
S05,simple,1,near,1,near,6,40.1,0,0,0.814267280999047,FALSE,FALSE
S05,simple,1,near,1,near,7,42.9,0,0,0.738381851999293,FALSE,FALSE
S05,simple,1,near,1,near,8,46,0,0,0.961674543999834,FALSE,FALSE
S05,simple,1,near,1,near,9,49.3,0,0,0.848725706999176,FALSE,FALSE
S05,simple,1,near,1,near,10,52.9,0,0,1.14378149600088,FALSE,FALSE
S05,simple,1,near,1,near,11,56.7,0,0,1.10429100000147,FALSE,FALSE
S05,simple,1,near,1,near,12,60.8,0,0,1.12204941100026,FALSE,FALSE
S05,simple,1,near,1,near,13,65.1,0,0,0.906076625999049,FALSE,FALSE
S05,simple,1,near,1,near,14,69.8,0,0,2.64867608500026,FALSE,TRUE
S05,simple,1,near,1,near,15,74.8,1,3,1.1340239759993,FALSE,FALSE
S05,simple,1,near,1,near,16,69.8,0,4,1.07043980199887,FALSE,FALSE
S05,simple,1,near,1,near,17,74.8,0,0,1.02373570399868,FALSE,FALSE
S05,simple,1,near,1,near,18,80.2,0,0,0.976136313000097,FALSE,FALSE
S05,simple,1,near,1,near,19,86,0,0,1.4097814680008,FALSE,FALSE
S05,simple,1,near,1,near,20,92.2,0,0,2.06444489400019,FALSE,FALSE
S05,simple,1,near,1,near,21,98.8,0,0,1.39714874400124,FALSE,FALSE
S05,simple,1,near,1,near,22,105.9,0,0,1.15620038699853,FALSE,FALSE
S05,simple,1,near,1,near,23,113.5,1,5,1.27951457000017,FALSE,FALSE
S05,simple,1,near,1,near,24,105.9,1,0,1.39050857199982,TRUE,FALSE
S05,simple,1,near,1,near,25,98.8,0,6,1.18725403099961,FALSE,FALSE
S05,simple,1,near,1,near,26,105.9,0,0,0.98482681600035,FALSE,FALSE
S05,simple,1,near,1,near,27,113.5,0,0,1.1640110139997,FALSE,FALSE
S05,simple,1,near,1,near,28,121.7,1,7,1.11349116600104,FALSE,FALSE
S05,simple,1,near,1,near,29,113.5,1,0,0.971175230000881,FALSE,FALSE
S05,simple,1,near,1,near,30,105.9,1,0,0.772352369998771,TRUE,FALSE
S05,simple,1,near,1,near,31,98.8,1,0,0.836811458999364,FALSE,FALSE
S05,simple,1,near,1,near,32,92.2,1,0,1.14171620500019,FALSE,FALSE
S05,simple,1,near,1,near,33,86,1,0,0.892747997999322,FALSE,FALSE
S05,simple,1,near,1,near,34,80.2,1,0,1.1716113120001,FALSE,FALSE
S05,simple,1,near,1,near,35,74.8,0,8,1.20865860699996,FALSE,FALSE
S05,simple,1,near,1,near,36,80.2,1,9,0.909089976999894,FALSE,FALSE
S05,simple,1,near,1,near,37,74.8,1,0,0.932742921999306,FALSE,FALSE
S05,simple,1,near,1,near,38,69.8,1,0,1.54993095499958,FALSE,FALSE
S05,simple,1,near,1,near,39,65.1,1,0,1.60325041500073,FALSE,FALSE
S05,simple,1,near,1,near,40,60.8,0,10,1.56424006700036,FALSE,FALSE
S05,simple,1,near,1,near,41,65.1,0,0,1.03073172199947,FALSE,FALSE
S05,simple,1,near,1,near,42,69.8,0,0,0.985062447000018,FALSE,FALSE
S05,simple,1,near,1,near,43,74.8,0,0,0.931014026000412,FALSE,FALSE
S05,simple,1,near,1,near,44,80.2,0,0,0.80941604399959,FALSE,FALSE
S05,simple,1,near,1,near,45,86,0,0,0.932514992999131,FALSE,FALSE
S05,simple,1,near,1,near,46,92.2,0,0,1.15502825500153,FALSE,FALSE
S05,simple,1,near,1,near,47,98.8,0,0,0.978503053000168,FALSE,FALSE
S05,simple,1,near,1,near,48,105.9,0,0,1.04758338200008,FALSE,FALSE
S05,simple,1,near,1,near,49,113.5,0,0,1.02011523599867,FALSE,FALSE
S05,simple,1,near,1,near,50,121.7,1,11,0.95472850599981,FALSE,FALSE
S05,simple,1,near,1,near,51,113.5,1,0,0.691508621999674,TRUE,FALSE
S05,simple,1,near,1,near,52,105.9,1,0,1.05277759900127,FALSE,FALSE
S05,simple,1,near,1,near,53,98.8,1,0,1.16112418000012,FALSE,FALSE
S05,simple,1,near,1,near,54,92.2,1,0,1.66140669999913,FALSE,FALSE
S05,simple,1,near,1,near,55,86,0,12,1.58546030800062,FALSE,FALSE
S05,simple,2,far,1,far,1,280,1,0,1.00533704400004,FALSE,FALSE
S05,simple,2,far,1,far,2,243.7,1,0,0.794924543000889,FALSE,FALSE
S05,simple,2,far,1,far,3,212.1,1,0,0.743693779999376,FALSE,FALSE
S05,simple,2,far,1,far,4,184.6,1,0,0.704794135001066,FALSE,FALSE
S05,simple,2,far,1,far,5,160.6,1,0,0.735583776000567,FALSE,FALSE
S05,simple,2,far,1,far,6,139.8,1,0,0.67868043299859,FALSE,FALSE
S05,simple,2,far,1,far,7,121.7,1,0,0.988552589000392,FALSE,FALSE
S05,simple,2,far,1,far,8,105.9,1,0,0.722041275001175,FALSE,FALSE
S05,simple,2,far,1,far,9,92.2,0,1,1.08157175800079,FALSE,FALSE
S05,simple,2,far,1,far,10,105.9,1,2,0.690536121999685,FALSE,FALSE
S05,simple,2,far,1,far,11,92.2,1,0,0.877476178000506,FALSE,FALSE
S05,simple,2,far,1,far,12,86,1,0,0.774575598999945,FALSE,FALSE
S05,simple,2,far,1,far,13,80.2,0,3,0.796932375000324,FALSE,FALSE
S05,simple,2,far,1,far,14,86,0,0,0.772924148001039,FALSE,FALSE
S05,simple,2,far,1,far,15,92.2,1,4,0.956692541998564,FALSE,FALSE
S05,simple,2,far,1,far,16,86,1,0,1.39581634199931,FALSE,FALSE
S05,simple,2,far,1,far,17,80.2,0,5,0.922598053999536,FALSE,FALSE
S05,simple,2,far,1,far,18,86,0,0,0.885738245000539,FALSE,FALSE
S05,simple,2,far,1,far,19,92.2,1,6,1.25292923599955,FALSE,FALSE
S05,simple,2,far,1,far,20,86,1,0,0.871996662999663,FALSE,FALSE
S05,simple,2,far,1,far,21,80.2,0,7,0.963475111999287,FALSE,FALSE
S05,simple,2,far,1,far,22,86,0,0,1.07855214600022,FALSE,FALSE
S05,simple,2,far,1,far,23,92.2,1,8,2.10604955999952,FALSE,FALSE
S05,simple,2,far,1,far,24,86,1,0,2.77411090399983,FALSE,FALSE
S05,simple,2,far,1,far,25,80.2,0,9,0.785775946000285,FALSE,FALSE
S05,simple,2,far,1,far,26,86,0,0,1.6539451440003199,FALSE,FALSE
S05,simple,2,far,1,far,27,92.2,0,0,1.86164964999989,FALSE,FALSE
S05,simple,2,far,1,far,28,98.8,1,10,1.4071881359996,FALSE,FALSE
S05,simple,2,far,1,far,29,92.2,1,0,1.49664887399922,FALSE,FALSE
S05,simple,2,far,1,far,30,86,1,0,1.61116523199962,FALSE,FALSE
S05,simple,2,far,1,far,31,80.2,1,0,1.28388108500076,TRUE,FALSE
S05,simple,2,far,1,far,32,74.8,1,0,1.82741201400131,FALSE,FALSE
S05,simple,2,far,1,far,33,69.8,0,11,0.65149459299937,FALSE,FALSE
S05,simple,2,far,1,far,34,74.8,0,0,0.830011997999463,FALSE,FALSE
S05,simple,2,far,1,far,35,80.2,0,0,0.956835644999956,FALSE,FALSE
S05,simple,2,far,1,far,36,86,0,0,0.693670889000714,FALSE,FALSE
S05,simple,2,far,1,far,37,92.2,1,12,1.0307726230003,FALSE,FALSE
S05,simple,3,far,1,far,1,280,1,0,0.751809516999856,FALSE,FALSE
S05,simple,3,far,1,far,2,243.7,1,0,0.774615988000733,FALSE,FALSE
S05,simple,3,far,1,far,3,212.1,1,0,0.73224349100019,FALSE,FALSE
S05,simple,3,far,1,far,4,184.6,1,0,0.736858231999577,FALSE,FALSE
S05,simple,3,far,1,far,5,160.6,1,0,0.764514945001793,FALSE,FALSE
S05,simple,3,far,1,far,6,139.8,1,0,0.739578200000324,FALSE,FALSE
S05,simple,3,far,1,far,7,121.7,1,0,0.690734927000449,FALSE,FALSE
S05,simple,3,far,1,far,8,105.9,1,0,1.04723217299943,FALSE,FALSE
S05,simple,3,far,1,far,9,92.2,0,1,0.745691314999931,FALSE,FALSE
S05,simple,3,far,1,far,10,105.9,1,2,1.00703631299984,FALSE,FALSE
S05,simple,3,far,1,far,11,92.2,1,0,0.700737952998679,FALSE,FALSE
S05,simple,3,far,1,far,12,86,1,0,0.839776402999632,FALSE,FALSE
S05,simple,3,far,1,far,13,80.2,1,0,3.1287656079985,TRUE,TRUE
S05,simple,3,far,1,far,14,74.8,0,3,1.34280996599955,FALSE,FALSE
S05,simple,3,far,1,far,15,80.2,1,4,1.01152164899941,FALSE,FALSE
S05,simple,3,far,1,far,16,74.8,1,0,1.90673809399959,FALSE,FALSE
S05,simple,3,far,1,far,17,69.8,0,5,2.15896558500026,TRUE,FALSE
S05,simple,3,far,1,far,18,74.8,1,6,1.86173022299954,FALSE,FALSE
S05,simple,3,far,1,far,19,69.8,0,7,0.957018499000696,FALSE,FALSE
S05,simple,3,far,1,far,20,74.8,1,8,1.1659094759998,FALSE,FALSE
S05,simple,3,far,1,far,21,69.8,0,9,1.1649255049997,FALSE,FALSE
S05,simple,3,far,1,far,22,74.8,1,10,1.36549847099923,FALSE,FALSE
S05,simple,3,far,1,far,23,69.8,0,11,0.904345412998737,FALSE,FALSE
S05,simple,3,far,1,far,24,74.8,0,0,1.9950945569999,FALSE,FALSE
S05,simple,3,far,1,far,25,80.2,1,12,1.03026519100058,FALSE,FALSE
S05,simple,4,near,1,near,1,30.3,0,0,0.912426769000376,FALSE,FALSE
S05,simple,4,near,1,near,2,34.9,0,0,0.994400937999671,FALSE,FALSE
S05,simple,4,near,1,near,3,40.1,0,0,1.33567536300143,FALSE,FALSE
S05,simple,4,near,1,near,4,46,0,0,2.56198942599985,FALSE,TRUE
S05,simple,4,near,1,near,5,52.9,1,1,1.06540754499838,FALSE,FALSE
S05,simple,4,near,1,near,6,46,0,2,2.12277665500005,FALSE,FALSE
S05,simple,4,near,1,near,7,52.9,0,0,1.50061703599931,FALSE,FALSE
S05,simple,4,near,1,near,8,56.7,1,3,0.846757585999512,FALSE,FALSE
S05,simple,4,near,1,near,9,52.9,1,0,1.25340158399922,FALSE,FALSE
S05,simple,4,near,1,near,10,49.3,1,0,1.70150128000023,TRUE,FALSE
S05,simple,4,near,1,near,11,46,1,0,1.10425387400028,FALSE,FALSE
S05,simple,4,near,1,near,12,42.9,1,0,1.75632638699972,FALSE,FALSE
S05,simple,4,near,1,near,13,40.1,1,0,1.71802965499955,FALSE,FALSE
S05,simple,4,near,1,near,14,37.4,1,0,2.05929415100036,TRUE,FALSE
S05,simple,4,near,1,near,15,34.9,0,4,1.10789693300103,FALSE,FALSE
S05,simple,4,near,1,near,16,37.4,0,0,1.03582047300006,FALSE,FALSE
S05,simple,4,near,1,near,17,40.1,0,0,1.18442278600014,FALSE,FALSE
S05,simple,4,near,1,near,18,42.9,0,0,0.773979329000213,FALSE,FALSE
S05,simple,4,near,1,near,19,46,0,0,1.02372809400003,FALSE,FALSE
S05,simple,4,near,1,near,20,49.3,0,0,0.994310093999957,FALSE,FALSE
S05,simple,4,near,1,near,21,52.9,0,0,1.12735086799876,FALSE,FALSE
S05,simple,4,near,1,near,22,56.7,1,5,1.27222558299945,FALSE,FALSE
S05,simple,4,near,1,near,23,52.9,1,0,1.78899991700018,FALSE,FALSE
S05,simple,4,near,1,near,24,49.3,1,0,1.14729781300048,FALSE,FALSE
S05,simple,4,near,1,near,25,46,0,6,1.22769659199912,FALSE,FALSE
S05,simple,4,near,1,near,26,49.3,1,7,0.815498862999448,FALSE,FALSE
S05,simple,4,near,1,near,27,46,0,8,0.851805909998802,FALSE,FALSE
S05,simple,4,near,1,near,28,49.3,1,9,0.857797016999029,FALSE,FALSE
S05,simple,4,near,1,near,29,46,1,0,1.82077057900096,FALSE,FALSE
S05,simple,4,near,1,near,30,42.9,1,0,1.71363407299941,FALSE,FALSE
S05,simple,4,near,1,near,31,40.1,1,0,1.78865160599889,FALSE,FALSE
S05,simple,4,near,1,near,32,37.4,0,10,1.13842101800037,FALSE,FALSE
S05,simple,4,near,1,near,33,40.1,0,0,1.08738224300032,FALSE,FALSE
S05,simple,4,near,1,near,34,42.9,1,11,1.19440671899974,FALSE,FALSE
S05,simple,4,near,1,near,35,40.1,1,0,1.99158138299936,FALSE,FALSE
S05,simple,4,near,1,near,36,37.4,0,12,0.957698424001137,FALSE,FALSE
S06,simple,1,far,1,far,1,280,1,0,0.94657012099924,FALSE,FALSE
S06,simple,1,far,1,far,2,243.7,1,0,0.881124667001131,FALSE,FALSE
S06,simple,1,far,1,far,3,212.1,1,0,1.22066767400247,FALSE,FALSE
S06,simple,1,far,1,far,4,184.6,1,0,1.16036751300271,FALSE,FALSE
S06,simple,1,far,1,far,5,160.6,1,0,1.2150282420007,FALSE,FALSE
S06,simple,1,far,1,far,6,139.8,1,0,1.33860399400146,FALSE,FALSE
S06,simple,1,far,1,far,7,121.7,0,1,1.02212961600162,FALSE,FALSE
S06,simple,1,far,1,far,8,139.8,0,0,1.20276676499998,FALSE,FALSE
S06,simple,1,far,1,far,9,160.6,0,0,1.22178492600142,FALSE,FALSE
S06,simple,1,far,1,far,10,184.6,1,2,1.1176730469997,FALSE,FALSE
S06,simple,1,far,1,far,11,160.6,1,0,1.22260087500035,FALSE,FALSE
S06,simple,1,far,1,far,12,149.9,0,3,1.11905251400094,FALSE,FALSE
S06,simple,1,far,1,far,13,160.6,1,4,1.14699757099879,FALSE,FALSE
S06,simple,1,far,1,far,14,149.9,1,0,1.10723096599759,FALSE,FALSE
S06,simple,1,far,1,far,15,139.8,1,0,1.35835102599958,FALSE,FALSE
S06,simple,1,far,1,far,16,130.4,0,5,1.22465479200036,FALSE,FALSE
S06,simple,1,far,1,far,17,139.8,1,6,1.63254278800014,FALSE,FALSE
S06,simple,1,far,1,far,18,130.4,0,7,1.37102974699883,FALSE,FALSE
S06,simple,1,far,1,far,19,139.8,1,8,1.62593488600032,FALSE,FALSE
S06,simple,1,far,1,far,20,130.4,0,9,1.33045409400074,FALSE,FALSE
S06,simple,1,far,1,far,21,139.8,0,0,1.31256674700126,FALSE,FALSE
S06,simple,1,far,1,far,22,149.9,1,10,1.25828421400001,FALSE,FALSE
S06,simple,1,far,1,far,23,139.8,1,0,1.11846249500013,FALSE,FALSE
S06,simple,1,far,1,far,24,130.4,1,0,1.14569379900058,TRUE,FALSE
S06,simple,1,far,1,far,25,121.7,0,11,1.13559923899811,FALSE,FALSE
S06,simple,1,far,1,far,26,130.4,0,0,1.3384985019984,FALSE,FALSE
S06,simple,1,far,1,far,27,139.8,1,12,1.4143050820021,FALSE,FALSE
S06,simple,2,near,1,near,1,30.3,0,0,1.16579264199754,FALSE,FALSE
S06,simple,2,near,1,near,2,34.9,0,0,0.892377992000547,FALSE,FALSE
S06,simple,2,near,1,near,3,40.1,0,0,1.08176315300079,FALSE,FALSE
S06,simple,2,near,1,near,4,46,0,0,1.30368515200098,FALSE,FALSE
S06,simple,2,near,1,near,5,52.9,0,0,1.37893423200148,FALSE,FALSE
S06,simple,2,near,1,near,6,60.8,0,0,0.905529486000887,FALSE,FALSE
S06,simple,2,near,1,near,7,69.8,0,0,1.07285125199996,FALSE,FALSE
S06,simple,2,near,1,near,8,80.2,0,0,1.00462727600097,FALSE,FALSE
S06,simple,2,near,1,near,9,92.2,0,0,1.27998026899877,FALSE,FALSE
S06,simple,2,near,1,near,10,105.9,0,0,1.39667094299875,FALSE,FALSE
S06,simple,2,near,1,near,11,121.7,1,1,0.962018014997739,FALSE,FALSE
S06,simple,2,near,1,near,12,105.9,1,0,0.92712855499849,FALSE,FALSE
S06,simple,2,near,1,near,13,92.2,0,2,1.06715456700113,FALSE,FALSE
S06,simple,2,near,1,near,14,105.9,1,3,0.94427079900197,FALSE,FALSE
S06,simple,2,near,1,near,15,98.8,1,0,1.24916766699971,FALSE,FALSE
S06,simple,2,near,1,near,16,92.2,1,0,1.40168960400115,FALSE,FALSE
S06,simple,2,near,1,near,17,86,0,4,1.16843518899987,FALSE,FALSE
S06,simple,2,near,1,near,18,92.2,0,0,1.28492635300063,FALSE,FALSE
S06,simple,2,near,1,near,19,98.8,1,5,1.05753685600212,FALSE,FALSE
S06,simple,2,near,1,near,20,92.2,1,0,1.32502023900088,FALSE,FALSE
S06,simple,2,near,1,near,21,86,1,0,1.1564916440002,FALSE,FALSE
S06,simple,2,near,1,near,22,80.2,1,0,1.29116819200135,FALSE,FALSE
S06,simple,2,near,1,near,23,74.8,0,6,0.983396163999714,FALSE,FALSE
S06,simple,2,near,1,near,24,80.2,1,7,1.42153314099778,FALSE,FALSE
S06,simple,2,near,1,near,25,74.8,0,8,1.03461050300029,FALSE,FALSE
S06,simple,2,near,1,near,26,80.2,0,0,1.25864989199908,FALSE,FALSE
S06,simple,2,near,1,near,27,86,0,0,1.09114733300157,FALSE,FALSE
S06,simple,2,near,1,near,28,92.2,1,9,1.20202052799868,FALSE,FALSE
S06,simple,2,near,1,near,29,86,0,10,1.38808020999932,TRUE,FALSE
S06,simple,2,near,1,near,30,92.2,0,0,1.43068538599982,FALSE,FALSE
S06,simple,2,near,1,near,31,98.8,1,11,1.10613793100129,FALSE,FALSE
S06,simple,2,near,1,near,32,92.2,0,12,1.43938154100033,FALSE,FALSE
S06,simple,3,near,1,near,1,30.3,0,0,1.01858600099877,FALSE,FALSE
S06,simple,3,near,1,near,2,34.9,0,0,0.85050121400127,FALSE,FALSE
S06,simple,3,near,1,near,3,40.1,0,0,1.05935357999988,FALSE,FALSE
S06,simple,3,near,1,near,4,46,0,0,1.30847771499975,FALSE,FALSE
S06,simple,3,near,1,near,5,52.9,0,0,1.16569155999969,FALSE,FALSE
S06,simple,3,near,1,near,6,60.8,0,0,0.890107535000425,FALSE,FALSE
S06,simple,3,near,1,near,7,69.8,0,0,1.16612380900187,FALSE,FALSE
S06,simple,3,near,1,near,8,80.2,0,0,1.10249025200028,FALSE,FALSE
S06,simple,3,near,1,near,9,92.2,0,0,1.19231803000002,FALSE,FALSE
S06,simple,3,near,1,near,10,105.9,1,1,1.64916585399988,FALSE,FALSE
S06,simple,3,near,1,near,11,92.2,1,0,1.47453624199989,FALSE,FALSE
S06,simple,3,near,1,near,12,80.2,0,2,1.00877776099878,FALSE,FALSE
S06,simple,3,near,1,near,13,92.2,1,3,1.19667815499997,FALSE,FALSE
S06,simple,3,near,1,near,14,86,1,0,1.2618018969988,FALSE,FALSE
S06,simple,3,near,1,near,15,80.2,0,4,1.13492071499786,FALSE,FALSE
S06,simple,3,near,1,near,16,86,1,5,1.15669877400069,FALSE,FALSE
S06,simple,3,near,1,near,17,80.2,0,6,1.09848815000078,FALSE,FALSE
S06,simple,3,near,1,near,18,86,0,0,1.18087469799866,FALSE,FALSE
S06,simple,3,near,1,near,19,92.2,0,0,1.31527546500001,FALSE,FALSE
S06,simple,3,near,1,near,20,98.8,1,7,1.42689684300058,FALSE,FALSE
S06,simple,3,near,1,near,21,92.2,0,8,1.52426477799963,FALSE,FALSE
S06,simple,3,near,1,near,22,98.8,1,9,1.40970144099992,FALSE,FALSE
S06,simple,3,near,1,near,23,92.2,0,10,1.42841430100088,FALSE,FALSE
S06,simple,3,near,1,near,24,98.8,0,0,1.41773328800264,FALSE,FALSE
S06,simple,3,near,1,near,25,105.9,1,11,1.02091876199847,FALSE,FALSE
S06,simple,3,near,1,near,26,98.8,0,12,1.91488852100156,TRUE,FALSE
S06,simple,4,far,1,far,1,280,1,0,1.08124973099984,FALSE,FALSE
S06,simple,4,far,1,far,2,243.7,1,0,1.00231092200193,FALSE,FALSE
S06,simple,4,far,1,far,3,212.1,1,0,0.97949310200056094,FALSE,FALSE
S06,simple,4,far,1,far,4,184.6,1,0,1.02536837700245,FALSE,FALSE
S06,simple,4,far,1,far,5,160.6,1,0,1.0635234859983,FALSE,FALSE
S06,simple,4,far,1,far,6,139.8,1,0,1.10417054400023,FALSE,FALSE
S06,simple,4,far,1,far,7,121.7,1,0,1.42272865699852,FALSE,FALSE
S06,simple,4,far,1,far,8,105.9,0,1,1.28024528999958,FALSE,FALSE
S06,simple,4,far,1,far,9,121.7,0,0,1.34052661299938,FALSE,FALSE
S06,simple,4,far,1,far,10,139.8,1,2,1.50055622900254,FALSE,FALSE
S06,simple,4,far,1,far,11,121.7,0,3,1.38717146699855,FALSE,FALSE
S06,simple,4,far,1,far,12,130.4,0,0,1.34827376400062,FALSE,FALSE
S06,simple,4,far,1,far,13,139.8,1,4,1.23554303399942,FALSE,FALSE
S06,simple,4,far,1,far,14,130.4,1,0,1.45333880699764,FALSE,FALSE
S06,simple,4,far,1,far,15,121.7,1,0,1.79946512400056,FALSE,FALSE
S06,simple,4,far,1,far,16,113.5,1,0,1.37351692700031,FALSE,FALSE
S06,simple,4,far,1,far,17,105.9,1,0,1.26234001400007,TRUE,FALSE
S06,simple,4,far,1,far,18,98.8,0,5,1.07068218299901,FALSE,FALSE
S06,simple,4,far,1,far,19,105.9,0,0,1.28130754799713,FALSE,FALSE
S06,simple,4,far,1,far,20,113.5,1,6,1.16207849299826,FALSE,FALSE
S06,simple,4,far,1,far,21,105.9,0,7,1.28734881499986,FALSE,FALSE
S06,simple,4,far,1,far,22,113.5,1,8,1.25429204100146,FALSE,FALSE
S06,simple,4,far,1,far,23,105.9,1,0,1.66595530199993,TRUE,FALSE
S06,simple,4,far,1,far,24,98.8,1,0,1.5558521219973,FALSE,FALSE
S06,simple,4,far,1,far,25,92.2,0,9,1.23991240000032,FALSE,FALSE
S06,simple,4,far,1,far,26,98.8,1,10,0.916119661000266,FALSE,FALSE
S06,simple,4,far,1,far,27,92.2,1,0,1.53941088300053,FALSE,FALSE
S06,simple,4,far,1,far,28,86,0,11,1.1408785700005,FALSE,FALSE
S06,simple,4,far,1,far,29,92.2,1,12,1.43526759000088,FALSE,FALSE
S07,simple,1,far,1,far,1,280,1,0,0.976624330996856,FALSE,FALSE
S07,simple,1,far,1,far,2,243.7,1,0,0.872748429999774,FALSE,FALSE
S07,simple,1,far,1,far,3,212.1,1,0,0.963937235999765,FALSE,FALSE
S07,simple,1,far,1,far,4,184.6,1,0,1.16164989699973,FALSE,FALSE
S07,simple,1,far,1,far,5,160.6,1,0,1.03783407599985,FALSE,FALSE
S07,simple,1,far,1,far,6,139.8,1,0,1.7881205119993,FALSE,FALSE
S07,simple,1,far,1,far,7,121.7,0,1,1.19427053000254,FALSE,FALSE
S07,simple,1,far,1,far,8,139.8,0,0,1.40915091499846,FALSE,FALSE
S07,simple,1,far,1,far,9,160.6,0,0,3.4325170359989,FALSE,FALSE
S07,simple,1,far,1,far,10,184.6,1,2,0.928284303998225,FALSE,FALSE
S07,simple,1,far,1,far,11,160.6,1,0,0.990280285997869,FALSE,FALSE
S07,simple,1,far,1,far,12,149.9,1,0,2.91745840500153,FALSE,FALSE
S07,simple,1,far,1,far,13,139.8,1,0,1.29396949500006,FALSE,FALSE
S07,simple,1,far,1,far,14,130.4,0,3,0.918817647998367,FALSE,FALSE
S07,simple,1,far,1,far,15,139.8,0,0,0.920980508999492,FALSE,FALSE
S07,simple,1,far,1,far,16,149.9,0,0,2.15948946799836,FALSE,FALSE
S07,simple,1,far,1,far,17,160.6,1,4,1.10190606600008,FALSE,FALSE
S07,simple,1,far,1,far,18,149.9,0,5,1.84193547099858,FALSE,FALSE
S07,simple,1,far,1,far,19,160.6,0,0,1.76484582099874,FALSE,FALSE
S07,simple,1,far,1,far,20,172.2,1,6,1.6723493319987,FALSE,FALSE
S07,simple,1,far,1,far,21,160.6,1,0,1.6901200909997,FALSE,FALSE
S07,simple,1,far,1,far,22,149.9,1,0,1.08598050899673,FALSE,FALSE
S07,simple,1,far,1,far,23,139.8,0,7,2.63925514199946,FALSE,FALSE
S07,simple,1,far,1,far,24,149.9,0,0,2.11641699900065,FALSE,FALSE
S07,simple,1,far,1,far,25,160.6,0,0,1.30371717899834,FALSE,FALSE
S07,simple,1,far,1,far,26,172.2,0,0,3.36852951800029,FALSE,FALSE
S07,simple,1,far,1,far,27,184.6,1,8,0.925121093998314,FALSE,FALSE
S07,simple,1,far,1,far,28,172.2,1,0,1.86583739199705,FALSE,FALSE
S07,simple,1,far,1,far,29,160.6,1,0,0.746941105997394,FALSE,FALSE
S07,simple,1,far,1,far,30,149.9,0,9,1.18054836599913,FALSE,FALSE
S07,simple,1,far,1,far,31,160.6,0,0,1.05488611100009,FALSE,FALSE
S07,simple,1,far,1,far,32,172.2,0,0,1.10582148700269,FALSE,FALSE
S07,simple,1,far,1,far,33,184.6,0,0,1.33775885399882,FALSE,FALSE
S07,simple,1,far,1,far,34,197.9,0,0,4.56112484899859,FALSE,FALSE
S07,simple,1,far,1,far,35,212.1,0,0,2.02280179199806,FALSE,FALSE
S07,simple,1,far,1,far,36,227.3,0,0,1.83615771400218,FALSE,FALSE
S07,simple,1,far,1,far,37,243.7,1,10,0.921819623999909,FALSE,FALSE
S07,simple,1,far,1,far,38,227.3,1,0,0.776089166996826,FALSE,FALSE
S07,simple,1,far,1,far,39,212.1,1,0,1.07252341999992,FALSE,FALSE
S07,simple,1,far,1,far,40,197.9,1,0,0.767418973999156,FALSE,FALSE
S07,simple,1,far,1,far,41,184.6,0,11,2.18739866000033,FALSE,FALSE
S07,simple,1,far,1,far,42,197.9,0,0,1.43050510200192,FALSE,FALSE
S07,simple,1,far,1,far,43,212.1,0,0,1.15990881999824,FALSE,FALSE
S07,simple,1,far,1,far,44,227.3,1,12,2.2252876829989,FALSE,FALSE
S07,simple,2,near,1,near,1,30.3,0,0,0.941127924998,FALSE,FALSE
S07,simple,2,near,1,near,2,34.9,0,0,0.879566251001961,FALSE,FALSE
S07,simple,2,near,1,near,3,40.1,0,0,0.51320680400022,FALSE,FALSE
S07,simple,2,near,1,near,4,46,0,0,0.587581964999117,FALSE,FALSE
S07,simple,2,near,1,near,5,52.9,0,0,0.664619561997824,FALSE,FALSE
S07,simple,2,near,1,near,6,60.8,0,0,1.23502106299929,FALSE,FALSE
S07,simple,2,near,1,near,7,69.8,0,0,0.96859584199774,FALSE,FALSE
S07,simple,2,near,1,near,8,80.2,0,0,0.799740919999749,FALSE,FALSE
S07,simple,2,near,1,near,9,92.2,0,0,1.26891122099914,FALSE,FALSE
S07,simple,2,near,1,near,10,105.9,0,0,1.35112570199999,FALSE,FALSE
S07,simple,2,near,1,near,11,121.7,0,0,5.29184910000185,FALSE,FALSE
S07,simple,2,near,1,near,12,139.8,1,1,0.886260893003055,FALSE,FALSE
S07,simple,2,near,1,near,13,121.7,1,0,1.17497059300149,FALSE,FALSE
S07,simple,2,near,1,near,14,105.9,0,2,1.24973565699838,FALSE,FALSE
S07,simple,2,near,1,near,15,121.7,0,0,1.12831038500008,FALSE,FALSE
S07,simple,2,near,1,near,16,130.4,0,0,0.748283739001636,FALSE,FALSE
S07,simple,2,near,1,near,17,139.8,0,0,1.0143696060004,FALSE,FALSE
S07,simple,2,near,1,near,18,149.9,0,0,1.78641064499971,FALSE,FALSE
S07,simple,2,near,1,near,19,160.6,0,0,4.1467278880009,FALSE,FALSE
S07,simple,2,near,1,near,20,172.2,0,0,1.41503111699785,FALSE,FALSE
S07,simple,2,near,1,near,21,184.6,1,3,1.84097446099986,FALSE,FALSE
S07,simple,2,near,1,near,22,172.2,1,0,1.3415824329968,FALSE,FALSE
S07,simple,2,near,1,near,23,160.6,1,0,2.17003694999948,FALSE,FALSE
S07,simple,2,near,1,near,24,149.9,1,0,2.42027394800243,TRUE,FALSE
S07,simple,2,near,1,near,25,139.8,0,4,0.996248094001203,FALSE,FALSE
S07,simple,2,near,1,near,26,149.9,0,0,1.74231334000069,FALSE,FALSE
S07,simple,2,near,1,near,27,160.6,0,0,2.42744694299836,FALSE,FALSE
S07,simple,2,near,1,near,28,172.2,1,5,1.03480715700061,FALSE,FALSE
S07,simple,2,near,1,near,29,160.6,1,0,1.59947717799878,FALSE,FALSE
S07,simple,2,near,1,near,30,149.9,0,6,1.30460155299807,TRUE,FALSE
S07,simple,2,near,1,near,31,160.6,0,0,0.987386993998371,FALSE,FALSE
S07,simple,2,near,1,near,32,172.2,0,0,0.83936599399749,FALSE,FALSE
S07,simple,2,near,1,near,33,184.6,0,0,2.89296131000083,FALSE,FALSE
S07,simple,2,near,1,near,34,197.9,0,0,1.3924859760009,FALSE,FALSE
S07,simple,2,near,1,near,35,212.1,0,0,1.43168089100072,FALSE,FALSE
S07,simple,2,near,1,near,36,227.3,1,7,1.43547884500003,FALSE,FALSE
S07,simple,2,near,1,near,37,212.1,1,0,2.24137353199694,FALSE,FALSE
S07,simple,2,near,1,near,38,197.9,0,8,2.55972887199823,FALSE,FALSE
S07,simple,2,near,1,near,39,212.1,0,0,2.18771336600184,FALSE,FALSE
S07,simple,2,near,1,near,40,227.3,0,0,1.85592606299906,FALSE,FALSE
S07,simple,2,near,1,near,41,243.7,1,9,1.0274971789986,FALSE,FALSE
S07,simple,2,near,1,near,42,227.3,1,0,1.01013151200095,FALSE,FALSE
S07,simple,2,near,1,near,43,212.1,1,0,3.92731055699915,FALSE,FALSE
S07,simple,2,near,1,near,44,197.9,1,0,1.03220705700005,FALSE,FALSE
S07,simple,2,near,1,near,45,184.6,0,10,1.92032865900183,FALSE,FALSE
S07,simple,2,near,1,near,46,197.9,0,0,2.17301147299804,FALSE,FALSE
S07,simple,2,near,1,near,47,212.1,0,0,1.26008549800099,FALSE,FALSE
S07,simple,2,near,1,near,48,227.3,1,11,0.928863539000304,FALSE,FALSE
S07,simple,2,near,1,near,49,212.1,1,0,0.997311703999003,FALSE,FALSE
S07,simple,2,near,1,near,50,197.9,0,12,2.06715365800119,FALSE,FALSE
S07,simple,3,near,1,near,1,30.3,0,0,0.853121404001286,FALSE,FALSE
S07,simple,3,near,1,near,2,34.9,0,0,0.769298881001305,FALSE,FALSE
S07,simple,3,near,1,near,3,40.1,0,0,0.723540539998794,FALSE,FALSE
S07,simple,3,near,1,near,4,46,0,0,0.795686059002037,FALSE,FALSE
S07,simple,3,near,1,near,5,52.9,0,0,0.765921133999655,FALSE,FALSE
S07,simple,3,near,1,near,6,60.8,0,0,0.612538051998854,FALSE,FALSE
S07,simple,3,near,1,near,7,69.8,0,0,0.850835626999469,FALSE,FALSE
S07,simple,3,near,1,near,8,80.2,0,0,0.9319285269994,FALSE,FALSE
S07,simple,3,near,1,near,9,92.2,0,0,1.14296663400091,FALSE,FALSE
S07,simple,3,near,1,near,10,105.9,0,0,3.21692268500192,TRUE,FALSE
S07,simple,3,near,1,near,11,121.7,0,0,2.39608338499966,FALSE,FALSE
S07,simple,3,near,1,near,12,139.8,1,1,1.48088191100032,FALSE,FALSE
S07,simple,3,near,1,near,13,121.7,1,0,2.18178689400156,FALSE,FALSE
S07,simple,3,near,1,near,14,105.9,0,2,1.32800016300098,FALSE,FALSE
S07,simple,3,near,1,near,15,121.7,0,0,1.43551588399714,FALSE,FALSE
S07,simple,3,near,1,near,16,130.4,0,0,1.82937447199947,FALSE,FALSE
S07,simple,3,near,1,near,17,139.8,0,0,2.37857889799852,FALSE,FALSE
S07,simple,3,near,1,near,18,149.9,0,0,1.67483095599891,FALSE,FALSE
S07,simple,3,near,1,near,19,160.6,0,0,2.03670990799947,FALSE,FALSE
S07,simple,3,near,1,near,20,172.2,1,3,0.928360873000202,FALSE,FALSE
S07,simple,3,near,1,near,21,160.6,0,4,3.1099004860007,FALSE,FALSE
S07,simple,3,near,1,near,22,172.2,0,0,1.75713489999907,FALSE,FALSE
S07,simple,3,near,1,near,23,184.6,0,0,1.79292340199754,FALSE,FALSE
S07,simple,3,near,1,near,24,197.9,0,0,3.82287660300062,FALSE,FALSE
S07,simple,3,near,1,near,25,212.1,1,5,1.83079856499899,FALSE,FALSE
S07,simple,3,near,1,near,26,197.9,1,0,1.46566335600073,FALSE,FALSE
S07,simple,3,near,1,near,27,184.6,1,0,2.68985477399838,FALSE,FALSE
S07,simple,3,near,1,near,28,172.2,1,0,1.08609724599955,FALSE,FALSE
S07,simple,3,near,1,near,29,160.6,0,6,1.69281551900349,FALSE,FALSE
S07,simple,3,near,1,near,30,172.2,0,0,1.61928760199953,FALSE,FALSE
S07,simple,3,near,1,near,31,184.6,0,0,1.19244630100002,FALSE,FALSE
S07,simple,3,near,1,near,32,197.9,0,0,2.34935024099832,FALSE,FALSE
S07,simple,3,near,1,near,33,212.1,0,0,2.04301322299943,FALSE,FALSE
S07,simple,3,near,1,near,34,227.3,0,0,1.98984799299797,FALSE,FALSE
S07,simple,3,near,1,near,35,243.7,0,0,2.56777359999978,FALSE,FALSE
S07,simple,3,near,1,near,36,261.2,0,0,1.52971835199787,FALSE,FALSE
S07,simple,3,near,1,near,37,280,1,7,2.03759600400008,FALSE,FALSE
S07,simple,3,near,1,near,38,261.2,1,0,1.05778052300229,FALSE,FALSE
S07,simple,3,near,1,near,39,243.7,1,0,1.31992317700133,FALSE,FALSE
S07,simple,3,near,1,near,40,227.3,1,0,2.18969422699956,FALSE,FALSE
S07,simple,3,near,1,near,41,212.1,0,8,1.38558036900213,FALSE,FALSE
S07,simple,3,near,1,near,42,227.3,0,0,2.48239595300038,FALSE,FALSE
S07,simple,3,near,1,near,43,243.7,0,0,1.87117266200221,FALSE,FALSE
S07,simple,3,near,1,near,44,261.2,1,9,2.38233072600269,FALSE,FALSE
S07,simple,3,near,1,near,45,243.7,1,0,1.26376961699862,FALSE,FALSE
S07,simple,3,near,1,near,46,227.3,1,0,1.53454176100058,FALSE,FALSE
S07,simple,3,near,1,near,47,212.1,1,0,1.89756404000218,FALSE,FALSE
S07,simple,3,near,1,near,48,197.9,1,0,1.98997073999999,FALSE,FALSE
S07,simple,3,near,1,near,49,184.6,1,0,1.63361069600069,FALSE,FALSE
S07,simple,3,near,1,near,50,172.2,1,0,2.57690930900208,FALSE,FALSE
S07,simple,3,near,1,near,51,160.6,0,10,2.30882003599982,FALSE,FALSE
S07,simple,3,near,1,near,52,172.2,0,0,1.48587009400217,FALSE,FALSE
S07,simple,3,near,1,near,53,184.6,0,0,1.17635698999948,FALSE,FALSE
S07,simple,3,near,1,near,54,197.9,0,0,1.70606993799811,FALSE,FALSE
S07,simple,3,near,1,near,55,212.1,0,0,3.55838417999985,FALSE,FALSE
S07,simple,3,near,1,near,56,227.3,0,0,2.95759262900174,FALSE,FALSE
S07,simple,3,near,1,near,57,243.7,0,0,2.67925439399914,FALSE,FALSE
S07,simple,3,near,1,near,58,261.2,0,0,1.94972746300118,FALSE,FALSE
S07,simple,3,near,1,near,59,280,1,11,3.45828324299873,FALSE,FALSE
S07,simple,3,near,1,near,60,261.2,1,0,3.34811710600115,FALSE,FALSE
S07,simple,3,near,1,near,61,243.7,1,0,3.5087758059999,FALSE,FALSE
S07,simple,3,near,1,near,62,227.3,1,0,1.57946452200122,FALSE,FALSE
S07,simple,3,near,1,near,63,212.1,0,12,2.70810899199932,FALSE,FALSE
S07,simple,4,far,1,far,1,280,1,0,2.25587981599892,FALSE,FALSE
S07,simple,4,far,1,far,2,243.7,1,0,1.2644948240013,FALSE,FALSE
S07,simple,4,far,1,far,3,212.1,1,0,1.32214801499867,FALSE,FALSE
S07,simple,4,far,1,far,4,184.6,1,0,1.02387074199942,FALSE,FALSE
S07,simple,4,far,1,far,5,160.6,0,1,1.62602179000169,FALSE,FALSE
S07,simple,4,far,1,far,6,184.6,1,2,4.34272209100163,FALSE,FALSE
S07,simple,4,far,1,far,7,160.6,0,3,0.812873393999325,FALSE,FALSE
S07,simple,4,far,1,far,8,172.2,0,0,1.12746831999902,FALSE,FALSE
S07,simple,4,far,1,far,9,184.6,0,0,1.98866598600216,FALSE,FALSE
S07,simple,4,far,1,far,10,197.9,1,4,2.8713439940002,FALSE,FALSE
S07,simple,4,far,1,far,11,184.6,1,0,1.36419209000087,FALSE,FALSE
S07,simple,4,far,1,far,12,172.2,0,5,2.45693416399808,FALSE,FALSE
S07,simple,4,far,1,far,13,184.6,0,0,1.68637653699989,FALSE,FALSE
S07,simple,4,far,1,far,14,197.9,0,0,3.166292574002,FALSE,FALSE
S07,simple,4,far,1,far,15,212.1,0,0,2.7648195010006,FALSE,FALSE
S07,simple,4,far,1,far,16,227.3,1,6,0.88666859300065,FALSE,FALSE
S07,simple,4,far,1,far,17,212.1,1,0,1.63189991200124,FALSE,FALSE
S07,simple,4,far,1,far,18,197.9,1,0,1.39709136999954,FALSE,FALSE
S07,simple,4,far,1,far,19,184.6,1,0,1.34178650100148,FALSE,FALSE
S07,simple,4,far,1,far,20,172.2,0,7,3.54775281099865,FALSE,FALSE
S07,simple,4,far,1,far,21,184.6,0,0,2.0554969879995,FALSE,FALSE
S07,simple,4,far,1,far,22,197.9,0,0,2.62963875200148,FALSE,FALSE
S07,simple,4,far,1,far,23,212.1,0,0,3.01065252199987,FALSE,FALSE
S07,simple,4,far,1,far,24,227.3,1,8,1.00233396900148,FALSE,FALSE
S07,simple,4,far,1,far,25,212.1,1,0,0.946232335998502,FALSE,FALSE
S07,simple,4,far,1,far,26,197.9,1,0,2.2619305929984,FALSE,FALSE
S07,simple,4,far,1,far,27,184.6,1,0,3.14792488400053,FALSE,FALSE
S07,simple,4,far,1,far,28,172.2,0,9,1.0683196309983,FALSE,FALSE
S07,simple,4,far,1,far,29,184.6,0,0,1.01981062100094,FALSE,FALSE
S07,simple,4,far,1,far,30,197.9,0,0,1.06217465200098,FALSE,FALSE
S07,simple,4,far,1,far,31,212.1,0,0,1.21277062499939,FALSE,FALSE
S07,simple,4,far,1,far,32,227.3,0,0,1.20220266999968,FALSE,FALSE
S07,simple,4,far,1,far,33,243.7,0,0,5.23665340099978,FALSE,FALSE
S07,simple,4,far,1,far,34,261.2,1,10,2.04472174400144,FALSE,FALSE
S07,simple,4,far,1,far,35,243.7,1,0,6.64634825899702,FALSE,TRUE
S07,simple,4,far,1,far,36,227.3,0,11,1.5522709470024,FALSE,FALSE
S07,simple,4,far,1,far,37,243.7,0,0,1.43833408400315,FALSE,FALSE
S07,simple,4,far,1,far,38,261.2,1,12,1.18963011800224,FALSE,FALSE
S08,simple,1,far,1,far,1,280,1,0,0.669993032000093,FALSE,FALSE
S08,simple,1,far,1,far,2,243.7,1,0,0.520471047000228,FALSE,FALSE
S08,simple,1,far,1,far,3,212.1,0,1,1.04231882500017,TRUE,FALSE
S08,simple,1,far,1,far,4,243.7,1,2,0.487186291999933,FALSE,FALSE
S08,simple,1,far,1,far,5,212.1,1,0,0.514232867999908,FALSE,FALSE
S08,simple,1,far,1,far,6,197.9,1,0,0.619774318000054,FALSE,FALSE
S08,simple,1,far,1,far,7,184.6,1,0,0.524138278999999,FALSE,FALSE
S08,simple,1,far,1,far,8,172.2,1,0,0.641581383999892,FALSE,FALSE
S08,simple,1,far,1,far,9,160.6,1,0,0.45729653799981,TRUE,FALSE
S08,simple,1,far,1,far,10,149.9,1,0,0.674563633000162,FALSE,FALSE
S08,simple,1,far,1,far,11,139.8,1,0,0.718300628000179,FALSE,FALSE
S08,simple,1,far,1,far,12,130.4,0,3,0.927229311999781,FALSE,FALSE
S08,simple,1,far,1,far,13,139.8,0,0,0.808501274999799,FALSE,FALSE
S08,simple,1,far,1,far,14,149.9,1,4,0.780069231000198,FALSE,FALSE
S08,simple,1,far,1,far,15,139.8,0,5,0.696601564999582,FALSE,FALSE
S08,simple,1,far,1,far,16,149.9,0,0,0.611705604000235,FALSE,FALSE
S08,simple,1,far,1,far,17,160.6,1,6,0.705863522000072,FALSE,FALSE
S08,simple,1,far,1,far,18,149.9,1,0,0.957132649999949,FALSE,FALSE
S08,simple,1,far,1,far,19,139.8,0,7,0.661535572000048,FALSE,FALSE
S08,simple,1,far,1,far,20,149.9,0,0,0.812181366999994,FALSE,FALSE
S08,simple,1,far,1,far,21,160.6,1,8,0.660617619000277,FALSE,FALSE
S08,simple,1,far,1,far,22,149.9,1,0,0.532776150000245,FALSE,FALSE
S08,simple,1,far,1,far,23,139.8,1,0,0.583987463000085,FALSE,FALSE
S08,simple,1,far,1,far,24,130.4,0,9,0.613268560000051,FALSE,FALSE
S08,simple,1,far,1,far,25,139.8,0,0,0.826415527000336,FALSE,FALSE
S08,simple,1,far,1,far,26,149.9,1,10,0.703127501999916,FALSE,FALSE
S08,simple,1,far,1,far,27,139.8,1,0,0.705615263999789,FALSE,FALSE
S08,simple,1,far,1,far,28,130.4,0,11,0.459972529999959,FALSE,FALSE
S08,simple,1,far,1,far,29,139.8,1,12,0.563192551000157,FALSE,FALSE
S08,simple,2,far,1,far,1,280,1,0,0.671661319000123,FALSE,FALSE
S08,simple,2,far,1,far,2,243.7,1,0,0.613966715000061,FALSE,FALSE
S08,simple,2,far,1,far,3,212.1,1,0,0.654493003000425,FALSE,FALSE
S08,simple,2,far,1,far,4,184.6,1,0,0.490209480999965,FALSE,FALSE
S08,simple,2,far,1,far,5,160.6,0,1,0.798875253000006,FALSE,FALSE
S08,simple,2,far,1,far,6,184.6,0,0,0.619363502999931,FALSE,FALSE
S08,simple,2,far,1,far,7,212.1,1,2,0.622134252000251,FALSE,FALSE
S08,simple,2,far,1,far,8,184.6,1,0,1.00088905300026,FALSE,FALSE
S08,simple,2,far,1,far,9,172.2,1,0,0.738983961000031,FALSE,FALSE
S08,simple,2,far,1,far,10,160.6,1,0,0.682017744999939,FALSE,FALSE
S08,simple,2,far,1,far,11,149.9,0,3,0.56056483600014,FALSE,FALSE
S08,simple,2,far,1,far,12,160.6,0,0,1.06480224100005,TRUE,FALSE
S08,simple,2,far,1,far,13,172.2,0,0,0.804015625999909,FALSE,FALSE
S08,simple,2,far,1,far,14,184.6,1,4,0.730953839999984,FALSE,FALSE
S08,simple,2,far,1,far,15,172.2,1,0,0.755950438000127,FALSE,FALSE
S08,simple,2,far,1,far,16,160.6,1,0,0.665153561999887,FALSE,FALSE
S08,simple,2,far,1,far,17,149.9,1,0,0.593314671999906,FALSE,FALSE
S08,simple,2,far,1,far,18,139.8,0,5,0.706050160999894,FALSE,FALSE
S08,simple,2,far,1,far,19,149.9,1,6,0.712767879999774,FALSE,FALSE
S08,simple,2,far,1,far,20,139.8,1,0,0.455376838999655,FALSE,FALSE
S08,simple,2,far,1,far,21,130.4,0,7,0.516195101999983,FALSE,FALSE
S08,simple,2,far,1,far,22,139.8,1,8,0.813696243000322,FALSE,FALSE
S08,simple,2,far,1,far,23,130.4,0,9,0.639127455000107,FALSE,FALSE
S08,simple,2,far,1,far,24,139.8,0,0,0.71205268499989,FALSE,FALSE
S08,simple,2,far,1,far,25,149.9,0,0,0.607289753000259,FALSE,FALSE
S08,simple,2,far,1,far,26,160.6,1,10,0.574371660999986,FALSE,FALSE
S08,simple,2,far,1,far,27,149.9,1,0,1.14905900000031,FALSE,TRUE
S08,simple,2,far,1,far,28,139.8,1,0,1.01293342000008,FALSE,FALSE
S08,simple,2,far,1,far,29,130.4,0,11,0.441433106000204,FALSE,FALSE
S08,simple,2,far,1,far,30,139.8,1,12,0.486178798999845,FALSE,FALSE
S08,simple,3,near,1,near,1,30.3,0,0,0.59313254000017,FALSE,FALSE
S08,simple,3,near,1,near,2,34.9,0,0,0.514736103999894,FALSE,FALSE
S08,simple,3,near,1,near,3,40.1,0,0,0.356288638000024,FALSE,FALSE
S08,simple,3,near,1,near,4,46,0,0,0.507555528000012,FALSE,FALSE
S08,simple,3,near,1,near,5,52.9,0,0,0.458298002999982,FALSE,FALSE
S08,simple,3,near,1,near,6,60.8,0,0,0.489550981999855,FALSE,FALSE
S08,simple,3,near,1,near,7,69.8,0,0,0.454113447000054,FALSE,FALSE
S08,simple,3,near,1,near,8,80.2,0,0,0.434502278999844,FALSE,FALSE
S08,simple,3,near,1,near,9,92.2,0,0,0.513307471999724,FALSE,FALSE
S08,simple,3,near,1,near,10,105.9,0,0,0.558707311000035,FALSE,FALSE
S08,simple,3,near,1,near,11,121.7,1,1,0.671186041000055,FALSE,FALSE
S08,simple,3,near,1,near,12,105.9,1,0,0.558823321999625,FALSE,FALSE
S08,simple,3,near,1,near,13,92.2,0,2,0.568696944999829,FALSE,FALSE
S08,simple,3,near,1,near,14,105.9,0,0,0.587248343000283,FALSE,FALSE
S08,simple,3,near,1,near,15,113.5,0,0,1.05110767899987,TRUE,TRUE
S08,simple,3,near,1,near,16,121.7,1,3,0.457077752000259,FALSE,FALSE
S08,simple,3,near,1,near,17,113.5,1,0,0.558415708999746,FALSE,FALSE
S08,simple,3,near,1,near,18,105.9,1,0,0.414387307000197,FALSE,FALSE
S08,simple,3,near,1,near,19,98.8,0,4,0.575547948999883,FALSE,FALSE
S08,simple,3,near,1,near,20,105.9,0,0,0.565619744000287,FALSE,FALSE
S08,simple,3,near,1,near,21,113.5,1,5,0.735324665999997,FALSE,FALSE
S08,simple,3,near,1,near,22,105.9,0,6,0.64447294699994,FALSE,FALSE
S08,simple,3,near,1,near,23,113.5,0,0,0.552191958000094,FALSE,FALSE
S08,simple,3,near,1,near,24,121.7,1,7,0.643789413999912,FALSE,FALSE
S08,simple,3,near,1,near,25,113.5,1,0,0.681315866000205,FALSE,FALSE
S08,simple,3,near,1,near,26,105.9,0,8,0.467569327000092,FALSE,FALSE
S08,simple,3,near,1,near,27,113.5,0,0,0.426300060999893,FALSE,FALSE
S08,simple,3,near,1,near,28,121.7,1,9,0.450948561000132,FALSE,FALSE
S08,simple,3,near,1,near,29,113.5,1,0,0.477295714999855,FALSE,FALSE
S08,simple,3,near,1,near,30,105.9,0,10,0.772413788999984,FALSE,FALSE
S08,simple,3,near,1,near,31,113.5,0,0,0.53224438999996,FALSE,FALSE
S08,simple,3,near,1,near,32,121.7,0,0,0.773951431000114,FALSE,FALSE
S08,simple,3,near,1,near,33,130.4,0,0,0.623696810000183,FALSE,FALSE
S08,simple,3,near,1,near,34,139.8,1,11,0.449381789000199,FALSE,FALSE
S08,simple,3,near,1,near,35,130.4,1,0,0.452036919999955,FALSE,FALSE
S08,simple,3,near,1,near,36,121.7,1,0,0.527210823000132,FALSE,FALSE
S08,simple,3,near,1,near,37,113.5,0,12,0.477061968999806,FALSE,FALSE
S08,simple,4,near,1,near,1,30.3,0,0,0.567618878999838,FALSE,FALSE
S08,simple,4,near,1,near,2,34.9,0,0,0.371245117999933,FALSE,FALSE
S08,simple,4,near,1,near,3,40.1,0,0,0.586556518999714,FALSE,FALSE
S08,simple,4,near,1,near,4,46,0,0,0.499108518999947,FALSE,FALSE
S08,simple,4,near,1,near,5,52.9,0,0,0.441001404999952,FALSE,FALSE
S08,simple,4,near,1,near,6,60.8,0,0,0.53047963400013,FALSE,FALSE
S08,simple,4,near,1,near,7,69.8,0,0,0.478063068999745,FALSE,FALSE
S08,simple,4,near,1,near,8,80.2,0,0,0.347399704000054,FALSE,FALSE
S08,simple,4,near,1,near,9,92.2,0,0,0.445081446000131,FALSE,FALSE
S08,simple,4,near,1,near,10,105.9,0,0,0.475766911999926,FALSE,FALSE
S08,simple,4,near,1,near,11,121.7,1,1,0.498502372000075,FALSE,FALSE
S08,simple,4,near,1,near,12,105.9,0,2,0.67168453800013606,FALSE,FALSE
S08,simple,4,near,1,near,13,121.7,0,0,1.00820381199992,FALSE,TRUE
S08,simple,4,near,1,near,14,130.4,1,3,0.601177680000092,FALSE,FALSE
S08,simple,4,near,1,near,15,121.7,0,4,0.634591961000297,FALSE,FALSE
S08,simple,4,near,1,near,16,130.4,1,5,0.508314516000155,FALSE,FALSE
S08,simple,4,near,1,near,17,121.7,1,0,0.775518218999878,FALSE,FALSE
S08,simple,4,near,1,near,18,113.5,0,6,0.593180945999848,FALSE,FALSE
S08,simple,4,near,1,near,19,121.7,0,0,0.704375043000255,FALSE,FALSE
S08,simple,4,near,1,near,20,130.4,1,7,0.59930954299989,FALSE,FALSE
S08,simple,4,near,1,near,21,121.7,0,8,0.639026087000275,FALSE,FALSE
S08,simple,4,near,1,near,22,130.4,1,9,0.58305237400009,FALSE,FALSE
S08,simple,4,near,1,near,23,121.7,1,0,0.521526645999984,FALSE,FALSE
S08,simple,4,near,1,near,24,113.5,0,10,0.43886232099976,FALSE,FALSE
S08,simple,4,near,1,near,25,121.7,1,11,0.49233221500026,FALSE,FALSE
S08,simple,4,near,1,near,26,113.5,1,0,0.473191037000106,FALSE,FALSE
S08,simple,4,near,1,near,27,105.9,0,12,0.54462772800025006,FALSE,FALSE
S09,simple,1,far,1,far,1,280,1,0,1.01393602500002,FALSE,FALSE
S09,simple,1,far,1,far,2,243.7,1,0,1.10425734199998,FALSE,FALSE
S09,simple,1,far,1,far,3,212.1,1,0,1.84329509999998,TRUE,FALSE
S09,simple,1,far,1,far,4,184.6,1,0,1.54073294999989,FALSE,FALSE
S09,simple,1,far,1,far,5,160.6,1,0,1.54016354299984,FALSE,FALSE
S09,simple,1,far,1,far,6,139.8,1,0,1.22951439000008,FALSE,FALSE
S09,simple,1,far,1,far,7,121.7,0,1,1.34574882600009,FALSE,FALSE
S09,simple,1,far,1,far,8,139.8,0,0,1.17399807900028,FALSE,FALSE
S09,simple,1,far,1,far,9,160.6,0,0,1.07111542899975,FALSE,FALSE
S09,simple,1,far,1,far,10,184.6,0,0,0.62937003099978,TRUE,TRUE
S09,simple,1,far,1,far,11,212.1,0,0,1.02887595499988,FALSE,FALSE
S09,simple,1,far,1,far,12,243.7,0,0,1.44731859500007,FALSE,FALSE
S09,simple,1,far,1,far,13,280,0,0,1.1411104849999,FALSE,FALSE
S09,simple,1,far,1,far,14,280,0,0,0.982914693000112,FALSE,FALSE
S09,simple,1,far,1,far,15,280,0,0,0.82875928600015,FALSE,FALSE
S09,simple,1,far,1,far,16,280,0,0,0.839240958000119,FALSE,FALSE
S09,simple,1,far,1,far,17,280,1,2,0.774705726999855,FALSE,FALSE
S09,simple,1,far,1,far,18,243.7,1,0,1.05287493300011,FALSE,FALSE
S09,simple,1,far,1,far,19,227.3,1,0,1.06747111799996,FALSE,FALSE
S09,simple,1,far,1,far,20,212.1,1,0,0.938777266000216,TRUE,FALSE
S09,simple,1,far,1,far,21,197.9,1,0,0.883814855999844,TRUE,FALSE
S09,simple,1,far,1,far,22,184.6,1,0,1.56158866999976,FALSE,FALSE
S09,simple,1,far,1,far,23,172.2,1,0,0.977676711000186,FALSE,FALSE
S09,simple,1,far,1,far,24,160.6,1,0,1.06467146299974,FALSE,FALSE
S09,simple,1,far,1,far,25,149.9,0,3,0.848739974000182,FALSE,FALSE
S09,simple,1,far,1,far,26,160.6,1,4,1.10115616800022,FALSE,FALSE
S09,simple,1,far,1,far,27,149.9,1,0,0.831363776999751,FALSE,FALSE
S09,simple,1,far,1,far,28,139.8,1,0,0.965581405999728,FALSE,FALSE
S09,simple,1,far,1,far,29,130.4,0,5,0.499680946999888,FALSE,TRUE
S09,simple,1,far,1,far,30,139.8,0,0,0.432910487999834,TRUE,TRUE
S09,simple,1,far,1,far,31,149.9,1,6,0.788166435999756,FALSE,FALSE
S09,simple,1,far,1,far,32,139.8,1,0,0.888354115999846,FALSE,FALSE
S09,simple,1,far,1,far,33,130.4,1,0,0.670480740999665,FALSE,FALSE
S09,simple,1,far,1,far,34,121.7,1,0,1.54625042099997,FALSE,FALSE
S09,simple,1,far,1,far,35,113.5,0,7,2.1305664749998,FALSE,TRUE
S09,simple,1,far,1,far,36,121.7,0,0,1.06042100200011,FALSE,FALSE
S09,simple,1,far,1,far,37,130.4,0,0,1.37884209799995,FALSE,FALSE
S09,simple,1,far,1,far,38,139.8,0,0,1.39770929800034,FALSE,FALSE
S09,simple,1,far,1,far,39,149.9,0,0,1.20725763100018,TRUE,FALSE
S09,simple,1,far,1,far,40,160.6,0,0,1.28922110700023,FALSE,FALSE
S09,simple,1,far,1,far,41,172.2,0,0,0.226649121999799,FALSE,TRUE
S09,simple,1,far,1,far,42,184.6,0,0,1.28888307299985,FALSE,FALSE
S09,simple,1,far,1,far,43,197.9,0,0,1.24075146300038,FALSE,FALSE
S09,simple,1,far,1,far,44,212.1,0,0,1.1526139180005,FALSE,FALSE
S09,simple,1,far,1,far,45,227.3,0,0,1.31537774600019,FALSE,FALSE
S09,simple,1,far,1,far,46,243.7,1,8,1.47056476399939,FALSE,FALSE
S09,simple,1,far,1,far,47,227.3,0,9,1.29146232399944,FALSE,FALSE
S09,simple,1,far,1,far,48,243.7,0,0,1.06808541499959,FALSE,FALSE
S09,simple,1,far,1,far,49,261.2,0,0,1.54155863599954,FALSE,FALSE
S09,simple,1,far,1,far,50,280,1,10,1.35927119200005,FALSE,FALSE
S09,simple,1,far,1,far,51,261.2,1,0,1.54312545500034,FALSE,FALSE
S09,simple,1,far,1,far,52,243.7,0,11,1.23857846700048,FALSE,FALSE
S09,simple,1,far,1,far,53,261.2,0,0,1.41728359300032,FALSE,FALSE
S09,simple,1,far,1,far,54,280,0,0,1.43274729099994,FALSE,FALSE
S09,simple,1,far,1,far,55,280,1,12,1.25326124499952,FALSE,FALSE
S09,simple,2,far,1,far,1,280,1,0,1.09244558299997,FALSE,FALSE
S09,simple,2,far,1,far,2,243.7,1,0,1.26828851800019,FALSE,FALSE
S09,simple,2,far,1,far,3,212.1,1,0,1.12668325699997,FALSE,FALSE
S09,simple,2,far,1,far,4,184.6,0,1,0.933098904999497,FALSE,FALSE
S09,simple,2,far,1,far,5,212.1,1,2,1.10180519400001,FALSE,FALSE
S09,simple,2,far,1,far,6,184.6,1,0,1.22909385100047,FALSE,FALSE
S09,simple,2,far,1,far,7,172.2,0,3,1.28743773299993,FALSE,FALSE
S09,simple,2,far,1,far,8,184.6,0,0,1.11753951199989,FALSE,FALSE
S09,simple,2,far,1,far,9,197.9,0,0,1.19962399799988,FALSE,FALSE
S09,simple,2,far,1,far,10,212.1,0,0,1.23520536999968,FALSE,FALSE
S09,simple,2,far,1,far,11,227.3,1,4,0.97503436199986,FALSE,FALSE
S09,simple,2,far,1,far,12,212.1,1,0,1.20247019099952,FALSE,FALSE
S09,simple,2,far,1,far,13,197.9,0,5,1.24814847900052,FALSE,FALSE
S09,simple,2,far,1,far,14,212.1,0,0,1.17230134400052,FALSE,FALSE
S09,simple,2,far,1,far,15,227.3,0,0,1.67618599300022,FALSE,FALSE
S09,simple,2,far,1,far,16,243.7,0,0,1.40734458499992,FALSE,FALSE
S09,simple,2,far,1,far,17,261.2,1,6,1.17263951700079,FALSE,FALSE
S09,simple,2,far,1,far,18,243.7,1,0,1.55601337999997,FALSE,FALSE
S09,simple,2,far,1,far,19,227.3,0,7,1.08981187900008,FALSE,FALSE
S09,simple,2,far,1,far,20,243.7,1,8,0.809634407999511,FALSE,FALSE
S09,simple,2,far,1,far,21,227.3,1,0,0.835034870000527,FALSE,FALSE
S09,simple,2,far,1,far,22,212.1,0,9,1.19679567000003,FALSE,FALSE
S09,simple,2,far,1,far,23,227.3,0,0,1.10461116700026,FALSE,FALSE
S09,simple,2,far,1,far,24,243.7,1,10,1.41588144199977,FALSE,FALSE
S09,simple,2,far,1,far,25,227.3,0,11,1.23753440600012,FALSE,FALSE
S09,simple,2,far,1,far,26,243.7,1,12,1.22605349200057,FALSE,FALSE
S09,simple,3,near,1,near,1,30.3,0,0,1.18924021200019,FALSE,FALSE
S09,simple,3,near,1,near,2,34.9,0,0,0.864751021999837,FALSE,FALSE
S09,simple,3,near,1,near,3,40.1,0,0,1.09553549100019,FALSE,FALSE
S09,simple,3,near,1,near,4,46,0,0,1.24141868199968,FALSE,FALSE
S09,simple,3,near,1,near,5,52.9,0,0,1.46655028700025,FALSE,FALSE
S09,simple,3,near,1,near,6,60.8,0,0,1.23807024999951,FALSE,FALSE
S09,simple,3,near,1,near,7,69.8,0,0,0.916384015000403,FALSE,FALSE
S09,simple,3,near,1,near,8,80.2,0,0,1.37152413300009,FALSE,FALSE
S09,simple,3,near,1,near,9,92.2,0,0,1.23157144499964,FALSE,FALSE
S09,simple,3,near,1,near,10,105.9,0,0,1.14255878699987,FALSE,FALSE
S09,simple,3,near,1,near,11,121.7,0,0,0.908692842999699,FALSE,FALSE
S09,simple,3,near,1,near,12,139.8,1,1,1.12255425800049,FALSE,FALSE
S09,simple,3,near,1,near,13,121.7,1,0,1.07918994899956,FALSE,FALSE
S09,simple,3,near,1,near,14,105.9,0,2,1.04887555200003,FALSE,FALSE
S09,simple,3,near,1,near,15,121.7,1,3,1.05498273800004,FALSE,FALSE
S09,simple,3,near,1,near,16,113.5,0,4,1.10552268900028,FALSE,FALSE
S09,simple,3,near,1,near,17,121.7,0,0,1.201546796,FALSE,FALSE
S09,simple,3,near,1,near,18,130.4,1,5,1.34050547599963,FALSE,FALSE
S09,simple,3,near,1,near,19,121.7,1,0,1.30616892100079,FALSE,FALSE
S09,simple,3,near,1,near,20,113.5,0,6,1.00093675799963,FALSE,FALSE
S09,simple,3,near,1,near,21,121.7,0,0,0.97166682399984,FALSE,FALSE
S09,simple,3,near,1,near,22,130.4,1,7,1.09832090300006,FALSE,FALSE
S09,simple,3,near,1,near,23,121.7,1,0,1.05722742000034,FALSE,FALSE
S09,simple,3,near,1,near,24,113.5,1,0,0.913193417000002,FALSE,FALSE
S09,simple,3,near,1,near,25,105.9,0,8,1.33492035399922,FALSE,FALSE
S09,simple,3,near,1,near,26,113.5,0,0,1.554312966,FALSE,FALSE
S09,simple,3,near,1,near,27,121.7,0,0,1.16771525000058,FALSE,FALSE
S09,simple,3,near,1,near,28,130.4,0,0,1.43671317000008,FALSE,FALSE
S09,simple,3,near,1,near,29,139.8,1,9,0.959972392000054,TRUE,FALSE
S09,simple,3,near,1,near,30,130.4,1,0,1.27945991700017,FALSE,FALSE
S09,simple,3,near,1,near,31,121.7,0,10,1.16466612899967,FALSE,FALSE
S09,simple,3,near,1,near,32,130.4,0,0,1.4937962820004,FALSE,FALSE
S09,simple,3,near,1,near,33,139.8,1,11,1.14053179799976,FALSE,FALSE
S09,simple,3,near,1,near,34,130.4,1,0,1.22053443000004,FALSE,FALSE
S09,simple,3,near,1,near,35,121.7,1,0,1.4464348749998,FALSE,FALSE
S09,simple,3,near,1,near,36,113.5,1,0,1.39057902100012,FALSE,FALSE
S09,simple,3,near,1,near,37,105.9,0,12,1.180191681,FALSE,FALSE
S09,simple,4,near,1,near,1,30.3,0,0,0.935496940999656,FALSE,FALSE
S09,simple,4,near,1,near,2,34.9,0,0,0.708849871999519,FALSE,TRUE
S09,simple,4,near,1,near,3,40.1,0,0,0.671216460000323,FALSE,TRUE
S09,simple,4,near,1,near,4,46,0,0,0.958832415999495,FALSE,FALSE
S09,simple,4,near,1,near,5,52.9,0,0,1.30033536500014,FALSE,FALSE
S09,simple,4,near,1,near,6,60.8,0,0,0.979237560000001,FALSE,FALSE
S09,simple,4,near,1,near,7,69.8,0,0,1.22872216799988,FALSE,FALSE
S09,simple,4,near,1,near,8,80.2,0,0,1.13636932600002,FALSE,FALSE
S09,simple,4,near,1,near,9,92.2,0,0,1.14869781000016,FALSE,FALSE
S09,simple,4,near,1,near,10,105.9,0,0,1.11288471700027,FALSE,FALSE
S09,simple,4,near,1,near,11,121.7,1,1,1.13129489699986,FALSE,FALSE
S09,simple,4,near,1,near,12,105.9,0,2,1.47134335700048,FALSE,FALSE
S09,simple,4,near,1,near,13,121.7,1,3,1.32170228199993,FALSE,FALSE
S09,simple,4,near,1,near,14,113.5,1,0,1.13332486900072,FALSE,FALSE
S09,simple,4,near,1,near,15,105.9,0,4,0.997874114999831,FALSE,FALSE
S09,simple,4,near,1,near,16,113.5,0,0,1.10833576299956,FALSE,FALSE
S09,simple,4,near,1,near,17,121.7,0,0,1.09174821499982,FALSE,FALSE
S09,simple,4,near,1,near,18,130.4,0,0,1.02916025000013,FALSE,FALSE
S09,simple,4,near,1,near,19,139.8,1,5,1.24606233599934,FALSE,FALSE
S09,simple,4,near,1,near,20,130.4,1,0,1.04385822999939,FALSE,FALSE
S09,simple,4,near,1,near,21,121.7,0,6,1.00983966700005,FALSE,FALSE
S09,simple,4,near,1,near,22,130.4,1,7,1.23703954200028,FALSE,FALSE
S09,simple,4,near,1,near,23,121.7,0,8,0.945446613999593,FALSE,FALSE
S09,simple,4,near,1,near,24,130.4,1,9,0.925979499000277,FALSE,FALSE
S09,simple,4,near,1,near,25,121.7,0,10,1.18684623100035,FALSE,FALSE
S09,simple,4,near,1,near,26,130.4,1,11,1.18398089600032,FALSE,FALSE
S09,simple,4,near,1,near,27,121.7,1,0,1.6469738349997,TRUE,TRUE
S09,simple,4,near,1,near,28,113.5,0,12,1.23685487800049,FALSE,FALSE
S10,simple,1,near,1,near,1,30.3,0,0,1.27190906000033,FALSE,FALSE
S10,simple,1,near,1,near,2,34.9,0,0,0.986728375000894,FALSE,FALSE
S10,simple,1,near,1,near,3,40.1,0,0,2.06361867099986,FALSE,FALSE
S10,simple,1,near,1,near,4,46,0,0,1.93462480599919,FALSE,FALSE
S10,simple,1,near,1,near,5,52.9,0,0,1.85742198700063,FALSE,FALSE
S10,simple,1,near,1,near,6,60.8,0,0,1.89035860100012,FALSE,FALSE
S10,simple,1,near,1,near,7,69.8,0,0,2.61996552799974,FALSE,FALSE
S10,simple,1,near,1,near,8,80.2,1,1,1.60241402799875,FALSE,FALSE
S10,simple,1,near,1,near,9,69.8,0,2,2.75483497200003,FALSE,FALSE
S10,simple,1,near,1,near,10,80.2,1,3,1.28022908499952,FALSE,FALSE
S10,simple,1,near,1,near,11,74.8,1,0,1.61687129399979,FALSE,FALSE
S10,simple,1,near,1,near,12,69.8,1,0,2.21942931699959,FALSE,FALSE
S10,simple,1,near,1,near,13,65.1,1,0,2.06108163999852,FALSE,FALSE
S10,simple,1,near,1,near,14,60.8,0,4,1.30785019199902,FALSE,FALSE
S10,simple,1,near,1,near,15,65.1,0,0,0.989321144001224,FALSE,FALSE
S10,simple,1,near,1,near,16,69.8,0,0,1.03064768999866,TRUE,FALSE
S10,simple,1,near,1,near,17,74.8,0,0,1.50239510300162,FALSE,FALSE
S10,simple,1,near,1,near,18,80.2,1,5,1.35936258399852,FALSE,FALSE
S10,simple,1,near,1,near,19,74.8,1,0,1.38741248800034,FALSE,FALSE
S10,simple,1,near,1,near,20,69.8,0,6,2.69338468400019,FALSE,FALSE
S10,simple,1,near,1,near,21,74.8,0,0,2.48808550499962,FALSE,FALSE
S10,simple,1,near,1,near,22,80.2,1,7,1.21203802399941,FALSE,FALSE
S10,simple,1,near,1,near,23,74.8,1,0,1.58190263600045,FALSE,FALSE
S10,simple,1,near,1,near,24,69.8,0,8,2.5463197500012,FALSE,FALSE
S10,simple,1,near,1,near,25,74.8,0,0,3.04764099400018,FALSE,FALSE
S10,simple,1,near,1,near,26,80.2,0,0,1.1004068680013,FALSE,FALSE
S10,simple,1,near,1,near,27,86,0,0,1.30382585499865,FALSE,FALSE
S10,simple,1,near,1,near,28,92.2,1,9,1.12241071300014,FALSE,FALSE
S10,simple,1,near,1,near,29,86,0,10,2.36914910399901,FALSE,FALSE
S10,simple,1,near,1,near,30,92.2,1,11,1.26270228300018,FALSE,FALSE
S10,simple,1,near,1,near,31,86,1,0,2.46565193100105,FALSE,FALSE
S10,simple,1,near,1,near,32,80.2,0,12,1.80365069999971,FALSE,FALSE
S10,simple,2,far,1,far,1,280,1,0,1.43589342800078,FALSE,FALSE
S10,simple,2,far,1,far,2,243.7,1,0,1.23064149399943,FALSE,FALSE
S10,simple,2,far,1,far,3,212.1,1,0,0.920888224000009,FALSE,FALSE
S10,simple,2,far,1,far,4,184.6,1,0,1.67295180599831,TRUE,FALSE
S10,simple,2,far,1,far,5,160.6,0,1,1.26669458200013,FALSE,FALSE
S10,simple,2,far,1,far,6,184.6,0,0,3.02308991500104,FALSE,FALSE
S10,simple,2,far,1,far,7,212.1,0,0,1.62511325500054,FALSE,FALSE
S10,simple,2,far,1,far,8,243.7,0,0,2.04245977900064,FALSE,FALSE
S10,simple,2,far,1,far,9,280,0,0,2.31909189500038,FALSE,FALSE
S10,simple,2,far,1,far,10,280,0,0,2.50381306700001,FALSE,FALSE
S10,simple,2,far,1,far,11,280,1,2,1.20071920200098,FALSE,FALSE
S10,simple,2,far,1,far,12,243.7,0,3,3.30614741700083,FALSE,FALSE
S10,simple,2,far,1,far,13,261.2,1,4,2.48744817499937,FALSE,FALSE
S10,simple,2,far,1,far,14,243.7,0,5,3.03014861099837,FALSE,FALSE
S10,simple,2,far,1,far,15,261.2,1,6,3.0546241560005,FALSE,FALSE
S10,simple,2,far,1,far,16,243.7,1,0,1.9545156690001,FALSE,FALSE
S10,simple,2,far,1,far,17,227.3,0,7,3.01652598200053,FALSE,FALSE
S10,simple,2,far,1,far,18,243.7,1,8,1.31000524100091,FALSE,FALSE
S10,simple,2,far,1,far,19,227.3,0,9,1.90569172899995,FALSE,FALSE
S10,simple,2,far,1,far,20,243.7,0,0,1.44593773300039,FALSE,FALSE
S10,simple,2,far,1,far,21,261.2,0,0,1.29567018300077,FALSE,FALSE
S10,simple,2,far,1,far,22,280,1,10,2.93480428899966,FALSE,FALSE
S10,simple,2,far,1,far,23,261.2,0,11,1.08753387700017,FALSE,FALSE
S10,simple,2,far,1,far,24,280,0,0,2.26867359900098,FALSE,FALSE
S10,simple,2,far,1,far,25,280,1,12,1.13162169600037,FALSE,FALSE
S10,simple,3,far,1,far,1,280,1,0,1.96040073800032,FALSE,FALSE
S10,simple,3,far,1,far,2,243.7,1,0,2.40926994199981,FALSE,FALSE
S10,simple,3,far,1,far,3,212.1,1,0,1.27050284699908,FALSE,FALSE
S10,simple,3,far,1,far,4,184.6,1,0,2.44209217299976,FALSE,FALSE
S10,simple,3,far,1,far,5,160.6,0,1,2.56815985499998,FALSE,FALSE
S10,simple,3,far,1,far,6,184.6,1,2,1.67220347299917,TRUE,FALSE
S10,simple,3,far,1,far,7,160.6,0,3,2.60014466100074,FALSE,FALSE
S10,simple,3,far,1,far,8,172.2,0,0,2.8800983000001,FALSE,FALSE
S10,simple,3,far,1,far,9,184.6,1,4,3.10933369200029,FALSE,FALSE
S10,simple,3,far,1,far,10,172.2,0,5,3.99393148799936,FALSE,FALSE
S10,simple,3,far,1,far,11,184.6,0,0,2.68126757299979,FALSE,FALSE
S10,simple,3,far,1,far,12,197.9,0,0,2.39277707200017,FALSE,FALSE
S10,simple,3,far,1,far,13,212.1,1,6,1.97183195200159,FALSE,FALSE
S10,simple,3,far,1,far,14,197.9,1,0,3.30517738099843,FALSE,FALSE
S10,simple,3,far,1,far,15,184.6,1,0,2.4360656860008,FALSE,FALSE
S10,simple,3,far,1,far,16,172.2,1,0,1.36935291900045,FALSE,FALSE
S10,simple,3,far,1,far,17,160.6,0,7,1.8622125919992,FALSE,FALSE
S10,simple,3,far,1,far,18,172.2,0,0,1.60594488300012,FALSE,FALSE
S10,simple,3,far,1,far,19,184.6,0,0,2.84459913799947,FALSE,FALSE
S10,simple,3,far,1,far,20,197.9,0,0,2.05941707799866,FALSE,FALSE
S10,simple,3,far,1,far,21,212.1,1,8,2.11668354699941,FALSE,FALSE
S10,simple,3,far,1,far,22,197.9,1,0,1.71029002700016,FALSE,FALSE
S10,simple,3,far,1,far,23,184.6,1,0,3.19085661400095,FALSE,FALSE
S10,simple,3,far,1,far,24,172.2,1,0,3.58568754299995,FALSE,FALSE
S10,simple,3,far,1,far,25,160.6,0,9,1.29001839800003,FALSE,FALSE
S10,simple,3,far,1,far,26,172.2,0,0,1.35119303900137,FALSE,FALSE
S10,simple,3,far,1,far,27,184.6,0,0,2.37831141800052,FALSE,FALSE
S10,simple,3,far,1,far,28,197.9,0,0,3.30841875899932,FALSE,FALSE
S10,simple,3,far,1,far,29,212.1,0,0,2.10747884699958,FALSE,FALSE
S10,simple,3,far,1,far,30,227.3,1,10,1.75696600500123,FALSE,FALSE
S10,simple,3,far,1,far,31,212.1,1,0,1.48839870700067,FALSE,FALSE
S10,simple,3,far,1,far,32,197.9,0,11,1.3177204249987,FALSE,FALSE
S10,simple,3,far,1,far,33,212.1,0,0,3.34731020099935,FALSE,FALSE
S10,simple,3,far,1,far,34,227.3,0,0,2.39680054599921,FALSE,FALSE
S10,simple,3,far,1,far,35,243.7,0,0,1.51399579900135,FALSE,FALSE
S10,simple,3,far,1,far,36,261.2,1,12,2.23728041700087,FALSE,FALSE
S10,simple,4,near,1,near,1,30.3,0,0,1.29339857699961,FALSE,FALSE
S10,simple,4,near,1,near,2,34.9,0,0,1.14037660000031,FALSE,FALSE
S10,simple,4,near,1,near,3,40.1,0,0,1.03029527500075,FALSE,FALSE
S10,simple,4,near,1,near,4,46,0,0,1.73675898799956,FALSE,FALSE
S10,simple,4,near,1,near,5,52.9,0,0,1.10735403099898,FALSE,FALSE
S10,simple,4,near,1,near,6,60.8,0,0,1.60491407699919,FALSE,FALSE
S10,simple,4,near,1,near,7,69.8,0,0,2.87962319800135,FALSE,FALSE
S10,simple,4,near,1,near,8,80.2,1,1,0.82513848599956,TRUE,FALSE
S10,simple,4,near,1,near,9,69.8,1,0,1.84747134700046,FALSE,FALSE
S10,simple,4,near,1,near,10,60.8,0,2,1.15669104900007,FALSE,FALSE
S10,simple,4,near,1,near,11,69.8,0,0,1.61852904799889,FALSE,FALSE
S10,simple,4,near,1,near,12,74.8,0,0,1.68393895500049,FALSE,FALSE
S10,simple,4,near,1,near,13,80.2,0,0,1.22580555400054,FALSE,FALSE
S10,simple,4,near,1,near,14,86,0,0,1.42194696600018,FALSE,FALSE
S10,simple,4,near,1,near,15,92.2,0,0,2.74491610800033,FALSE,FALSE
S10,simple,4,near,1,near,16,98.8,0,0,1.02841623200038,FALSE,FALSE
S10,simple,4,near,1,near,17,105.9,0,0,1.47839946299973,FALSE,FALSE
S10,simple,4,near,1,near,18,113.5,0,0,1.74869644399951,FALSE,FALSE
S10,simple,4,near,1,near,19,121.7,1,3,1.2062358839994,FALSE,FALSE
S10,simple,4,near,1,near,20,113.5,0,4,1.1372969439999,FALSE,FALSE
S10,simple,4,near,1,near,21,121.7,0,0,1.29280595099954,FALSE,FALSE
S10,simple,4,near,1,near,22,130.4,0,0,2.18259118999958,FALSE,FALSE
S10,simple,4,near,1,near,23,139.8,1,5,1.093769694,FALSE,FALSE
S10,simple,4,near,1,near,24,130.4,1,0,1.52497472700088,FALSE,FALSE
S10,simple,4,near,1,near,25,121.7,0,6,1.23000184000011,FALSE,FALSE
S10,simple,4,near,1,near,26,130.4,0,0,1.93010461199992,FALSE,FALSE
S10,simple,4,near,1,near,27,139.8,0,0,3.24289886900078,FALSE,FALSE
S10,simple,4,near,1,near,28,149.9,1,7,1.39251401399997,FALSE,FALSE
S10,simple,4,near,1,near,29,139.8,1,0,1.50514675499835,FALSE,FALSE
S10,simple,4,near,1,near,30,130.4,1,0,3.07391167199967,FALSE,FALSE
S10,simple,4,near,1,near,31,121.7,0,8,2.30512194699986,FALSE,FALSE
S10,simple,4,near,1,near,32,130.4,1,9,2.01421830599975,FALSE,FALSE
S10,simple,4,near,1,near,33,121.7,0,10,2.40009539600032,FALSE,FALSE
S10,simple,4,near,1,near,34,130.4,0,0,2.31040812699939,FALSE,FALSE
S10,simple,4,near,1,near,35,139.8,1,11,2.31224201400073,FALSE,FALSE
S10,simple,4,near,1,near,36,130.4,0,12,1.68091178900067,FALSE,FALSE
S11,simple,1,near,1,near,1,30.3,0,0,1.04521443799968,FALSE,FALSE
S11,simple,1,near,1,near,2,34.9,0,0,0.643954038001539,FALSE,FALSE
S11,simple,1,near,1,near,3,40.1,0,0,0.561104960001103,FALSE,FALSE
S11,simple,1,near,1,near,4,46,0,0,0.700654347001546,FALSE,FALSE
S11,simple,1,near,1,near,5,52.9,0,0,0.597308017000614,FALSE,FALSE
S11,simple,1,near,1,near,6,60.8,0,0,0.590442737000558,FALSE,FALSE
S11,simple,1,near,1,near,7,69.8,0,0,0.77180918600061,FALSE,FALSE
S11,simple,1,near,1,near,8,80.2,0,0,0.928830434997508,FALSE,FALSE
S11,simple,1,near,1,near,9,92.2,0,0,2.37308310400113,FALSE,FALSE
S11,simple,1,near,1,near,10,105.9,1,1,0.655711510000401,FALSE,FALSE
S11,simple,1,near,1,near,11,92.2,1,0,2.48784273700221,FALSE,FALSE
S11,simple,1,near,1,near,12,80.2,0,2,0.971963267998945,FALSE,FALSE
S11,simple,1,near,1,near,13,92.2,1,3,2.44823040000119,FALSE,FALSE
S11,simple,1,near,1,near,14,86,1,0,3.26751056799912,FALSE,FALSE
S11,simple,1,near,1,near,15,80.2,0,4,0.526510613999562,FALSE,FALSE
S11,simple,1,near,1,near,16,86,0,0,1.43640973400034,FALSE,FALSE
S11,simple,1,near,1,near,17,92.2,1,5,1.35789028800355,FALSE,FALSE
S11,simple,1,near,1,near,18,86,1,0,3.36035704900132,FALSE,FALSE
S11,simple,1,near,1,near,19,80.2,0,6,2.28854325000066,FALSE,FALSE
S11,simple,1,near,1,near,20,86,1,7,1.50781584099968,FALSE,FALSE
S11,simple,1,near,1,near,21,80.2,0,8,3.24054371300008,FALSE,FALSE
S11,simple,1,near,1,near,22,86,0,0,3.0703929400006,FALSE,FALSE
S11,simple,1,near,1,near,23,92.2,1,9,2.11553918700156,FALSE,FALSE
S11,simple,1,near,1,near,24,86,1,0,1.65542255100081,FALSE,FALSE
S11,simple,1,near,1,near,25,80.2,0,10,2.01570044999971,FALSE,FALSE
S11,simple,1,near,1,near,26,86,0,0,2.68533200599995,FALSE,FALSE
S11,simple,1,near,1,near,27,92.2,1,11,4.05955113899836,FALSE,FALSE
S11,simple,1,near,1,near,28,86,1,0,2.99817369499942,FALSE,FALSE
S11,simple,1,near,1,near,29,80.2,0,12,2.97384015200078,FALSE,FALSE
S11,simple,2,far,1,far,1,280,1,0,0.654721437997068,FALSE,FALSE
S11,simple,2,far,1,far,2,243.7,1,0,0.572349737001787,FALSE,FALSE
S11,simple,2,far,1,far,3,212.1,1,0,0.616478386997187,FALSE,FALSE
S11,simple,2,far,1,far,4,184.6,1,0,0.570987279999827,FALSE,FALSE
S11,simple,2,far,1,far,5,160.6,1,0,0.457285705997492,FALSE,FALSE
S11,simple,2,far,1,far,6,139.8,1,0,0.731495496998832,FALSE,FALSE
S11,simple,2,far,1,far,7,121.7,1,0,1.29103376800049,FALSE,FALSE
S11,simple,2,far,1,far,8,105.9,1,0,1.10210166899924,FALSE,FALSE
S11,simple,2,far,1,far,9,92.2,0,1,3.80762080400018,FALSE,FALSE
S11,simple,2,far,1,far,10,105.9,0,0,1.9341626610003,FALSE,FALSE
S11,simple,2,far,1,far,11,121.7,1,2,0.848346019000019,FALSE,FALSE
S11,simple,2,far,1,far,12,105.9,0,3,3.1595346260001,FALSE,FALSE
S11,simple,2,far,1,far,13,113.5,1,4,1.18615205900278,FALSE,FALSE
S11,simple,2,far,1,far,14,105.9,1,0,2.18926321500112,FALSE,FALSE
S11,simple,2,far,1,far,15,98.8,1,0,1.36360671500006,FALSE,FALSE
S11,simple,2,far,1,far,16,92.2,1,0,1.60804906400153,FALSE,FALSE
S11,simple,2,far,1,far,17,86,1,0,2.60871083299935,FALSE,FALSE
S11,simple,2,far,1,far,18,80.2,0,5,1.23604789300225,FALSE,FALSE
S11,simple,2,far,1,far,19,86,0,0,0.823596147001808,FALSE,FALSE
S11,simple,2,far,1,far,20,92.2,1,6,1.21446834400194,FALSE,FALSE
S11,simple,2,far,1,far,21,86,0,7,2.92068772800121,FALSE,FALSE
S11,simple,2,far,1,far,22,92.2,1,8,0.60679979699853,FALSE,FALSE
S11,simple,2,far,1,far,23,86,0,9,2.75798547900195,FALSE,FALSE
S11,simple,2,far,1,far,24,92.2,1,10,0.779610940000566,FALSE,FALSE
S11,simple,2,far,1,far,25,86,0,11,1.0433353039989,FALSE,FALSE
S11,simple,2,far,1,far,26,92.2,1,12,1.67652855800043,FALSE,FALSE
S11,simple,3,near,1,near,1,30.3,0,0,1.0232898960021,FALSE,FALSE
S11,simple,3,near,1,near,2,34.9,0,0,0.521609237002849,FALSE,FALSE
S11,simple,3,near,1,near,3,40.1,0,0,0.780202680001821,FALSE,FALSE
S11,simple,3,near,1,near,4,46,0,0,0.575864654001634,FALSE,FALSE
S11,simple,3,near,1,near,5,52.9,0,0,0.696242504000111,FALSE,FALSE
S11,simple,3,near,1,near,6,60.8,0,0,0.745707777001371,FALSE,FALSE
S11,simple,3,near,1,near,7,69.8,0,0,0.65407567299917,FALSE,FALSE
S11,simple,3,near,1,near,8,80.2,0,0,0.849349985997833,FALSE,FALSE
S11,simple,3,near,1,near,9,92.2,0,0,0.910900681999919,FALSE,FALSE
S11,simple,3,near,1,near,10,105.9,0,0,1.03429485499873,FALSE,FALSE
S11,simple,3,near,1,near,11,121.7,1,1,0.909773719999066,FALSE,FALSE
S11,simple,3,near,1,near,12,105.9,1,0,0.507021419998637,FALSE,FALSE
S11,simple,3,near,1,near,13,92.2,0,2,2.05440598299901,FALSE,FALSE
S11,simple,3,near,1,near,14,105.9,0,0,1.85183873500137,FALSE,FALSE
S11,simple,3,near,1,near,15,113.5,1,3,2.37586354199811,FALSE,FALSE
S11,simple,3,near,1,near,16,105.9,0,4,2.53607467799884,FALSE,FALSE
S11,simple,3,near,1,near,17,113.5,0,0,2.44919127700268,FALSE,FALSE
S11,simple,3,near,1,near,18,121.7,1,5,0.966877345999819,FALSE,FALSE
S11,simple,3,near,1,near,19,113.5,1,0,0.91527862699877,FALSE,FALSE
S11,simple,3,near,1,near,20,105.9,1,0,0.594202416999906,FALSE,FALSE
S11,simple,3,near,1,near,21,98.8,1,0,0.946883193002577,FALSE,FALSE
S11,simple,3,near,1,near,22,92.2,1,0,1.42350871400049,FALSE,FALSE
S11,simple,3,near,1,near,23,86,0,6,0.950876586000959,FALSE,FALSE
S11,simple,3,near,1,near,24,92.2,0,0,1.19435786899703,FALSE,FALSE
S11,simple,3,near,1,near,25,98.8,1,7,0.699337037000078,FALSE,FALSE
S11,simple,3,near,1,near,26,92.2,0,8,1.90612603900081,FALSE,FALSE
S11,simple,3,near,1,near,27,98.8,0,0,3.19411215400032,FALSE,FALSE
S11,simple,3,near,1,near,28,105.9,1,9,1.93729052200069,FALSE,FALSE
S11,simple,3,near,1,near,29,98.8,0,10,3.91389718899882,FALSE,FALSE
S11,simple,3,near,1,near,30,105.9,0,0,3.1344595720002,FALSE,FALSE
S11,simple,3,near,1,near,31,113.5,1,11,0.657975949001411,FALSE,FALSE
S11,simple,3,near,1,near,32,105.9,1,0,1.30751247599983,FALSE,FALSE
S11,simple,3,near,1,near,33,98.8,1,0,3.06244926900035,FALSE,FALSE
S11,simple,3,near,1,near,34,92.2,0,12,2.54936361799992,FALSE,FALSE
S11,simple,4,far,1,far,1,280,1,0,0.570628931000101,FALSE,FALSE
S11,simple,4,far,1,far,2,243.7,1,0,0.5046305629985,FALSE,FALSE
S11,simple,4,far,1,far,3,212.1,1,0,0.581209281001065,FALSE,FALSE
S11,simple,4,far,1,far,4,184.6,1,0,0.696380284000043,FALSE,FALSE
S11,simple,4,far,1,far,5,160.6,1,0,0.672019521000038,FALSE,FALSE
S11,simple,4,far,1,far,6,139.8,1,0,0.539718132000417,FALSE,FALSE
S11,simple,4,far,1,far,7,121.7,1,0,1.00919208400228,FALSE,FALSE
S11,simple,4,far,1,far,8,105.9,1,0,0.56341305100068,FALSE,FALSE
S11,simple,4,far,1,far,9,92.2,1,0,1.61316744300348,FALSE,FALSE
S11,simple,4,far,1,far,10,80.2,0,1,1.01427598000009,FALSE,FALSE
S11,simple,4,far,1,far,11,92.2,0,0,0.798387640999863,FALSE,FALSE
S11,simple,4,far,1,far,12,105.9,0,0,2.76920954399975,FALSE,FALSE
S11,simple,4,far,1,far,13,121.7,1,2,0.59045716699984,FALSE,FALSE
S11,simple,4,far,1,far,14,105.9,1,0,1.74532997100323,FALSE,FALSE
S11,simple,4,far,1,far,15,98.8,0,3,0.742434566000156,FALSE,FALSE
S11,simple,4,far,1,far,16,105.9,1,4,0.67986626000129,FALSE,FALSE
S11,simple,4,far,1,far,17,98.8,0,5,1.39371162600219,FALSE,FALSE
S11,simple,4,far,1,far,18,105.9,0,0,1.24870292600099,FALSE,FALSE
S11,simple,4,far,1,far,19,113.5,1,6,0.74920498499705,FALSE,FALSE
S11,simple,4,far,1,far,20,105.9,1,0,1.1090542410020101,FALSE,FALSE
S11,simple,4,far,1,far,21,98.8,1,0,2.4149419489986,FALSE,FALSE
S11,simple,4,far,1,far,22,92.2,0,7,0.683598905001418,FALSE,FALSE
S11,simple,4,far,1,far,23,98.8,0,0,3.45655388500018,FALSE,FALSE
S11,simple,4,far,1,far,24,105.9,1,8,0.640867439000431,FALSE,FALSE
S11,simple,4,far,1,far,25,98.8,0,9,3.20807892799712,FALSE,FALSE
S11,simple,4,far,1,far,26,105.9,1,10,0.661050487000466,FALSE,FALSE
S11,simple,4,far,1,far,27,98.8,1,0,1.89919240499876,FALSE,FALSE
S11,simple,4,far,1,far,28,92.2,1,0,2.29190476499934,FALSE,FALSE
S11,simple,4,far,1,far,29,86,0,11,0.912681537996832,FALSE,FALSE
S11,simple,4,far,1,far,30,92.2,0,0,2.29692334700303,FALSE,FALSE
S11,simple,4,far,1,far,31,98.8,1,12,0.690223494999373,FALSE,FALSE
S12,simple,1,near,1,near,1,30.3,0,0,0.401464287999261,FALSE,FALSE
S12,simple,1,near,1,near,2,34.9,0,0,0.63960626500193,FALSE,FALSE
S12,simple,1,near,1,near,3,40.1,0,0,0.511604426999838,FALSE,FALSE
S12,simple,1,near,1,near,4,46,0,0,0.518762159998005,FALSE,FALSE
S12,simple,1,near,1,near,5,52.9,0,0,0.65609155600032,FALSE,FALSE
S12,simple,1,near,1,near,6,60.8,0,0,0.624606919998769,FALSE,FALSE
S12,simple,1,near,1,near,7,69.8,0,0,0.58898912800214,FALSE,FALSE
S12,simple,1,near,1,near,8,80.2,0,0,0.54573215200071,FALSE,FALSE
S12,simple,1,near,1,near,9,92.2,0,0,0.489464359001431,FALSE,FALSE
S12,simple,1,near,1,near,10,105.9,0,0,0.922161974001938,FALSE,FALSE
S12,simple,1,near,1,near,11,121.7,0,0,1.64261472200087,FALSE,FALSE
S12,simple,1,near,1,near,12,139.8,1,1,0.689268116999301,FALSE,FALSE
S12,simple,1,near,1,near,13,121.7,0,2,1.4760596399974,FALSE,FALSE
S12,simple,1,near,1,near,14,139.8,1,3,1.03644062500098,FALSE,FALSE
S12,simple,1,near,1,near,15,130.4,1,0,1.59415694899872,FALSE,FALSE
S12,simple,1,near,1,near,16,121.7,0,4,1.47491643499961,FALSE,FALSE
S12,simple,1,near,1,near,17,130.4,1,5,1.45338421700217,FALSE,FALSE
S12,simple,1,near,1,near,18,121.7,0,6,0.823354924999876,FALSE,FALSE
S12,simple,1,near,1,near,19,130.4,0,0,1.4075124919982,FALSE,FALSE
S12,simple,1,near,1,near,20,139.8,1,7,0.944072829002835,FALSE,FALSE
S12,simple,1,near,1,near,21,130.4,0,8,1.54000038400045,FALSE,FALSE
S12,simple,1,near,1,near,22,139.8,1,9,1.47447629400267,FALSE,FALSE
S12,simple,1,near,1,near,23,130.4,0,10,1.68764146100148,FALSE,FALSE
S12,simple,1,near,1,near,24,139.8,1,11,0.703333821998967,FALSE,FALSE
S12,simple,1,near,1,near,25,130.4,0,12,0.87265589999879,TRUE,FALSE
S12,simple,2,near,1,near,1,30.3,0,0,0.534344342002441,FALSE,FALSE
S12,simple,2,near,1,near,2,34.9,0,0,0.498768290999578,FALSE,FALSE
S12,simple,2,near,1,near,3,40.1,0,0,0.502220149002824,FALSE,FALSE
S12,simple,2,near,1,near,4,46,0,0,0.449470208997809,FALSE,FALSE
S12,simple,2,near,1,near,5,52.9,0,0,0.622574282999267,FALSE,FALSE
S12,simple,2,near,1,near,6,60.8,0,0,0.480919575998996,FALSE,FALSE
S12,simple,2,near,1,near,7,69.8,0,0,0.46018484500018503,FALSE,FALSE
S12,simple,2,near,1,near,8,80.2,0,0,0.603652533001878,FALSE,FALSE
S12,simple,2,near,1,near,9,92.2,0,0,0.710876673001621,FALSE,FALSE
S12,simple,2,near,1,near,10,105.9,0,0,0.644992233999801,FALSE,FALSE
S12,simple,2,near,1,near,11,121.7,1,1,0.954761615997995,FALSE,FALSE
S12,simple,2,near,1,near,12,105.9,0,2,0.776196168000752,FALSE,FALSE
S12,simple,2,near,1,near,13,121.7,1,3,0.767828078001912,FALSE,FALSE
S12,simple,2,near,1,near,14,113.5,0,4,0.539922708001541,FALSE,FALSE
S12,simple,2,near,1,near,15,121.7,1,5,0.80960256400067,FALSE,FALSE
S12,simple,2,near,1,near,16,113.5,0,6,0.957540461000463,FALSE,FALSE
S12,simple,2,near,1,near,17,121.7,1,7,0.733173692999117,FALSE,FALSE
S12,simple,2,near,1,near,18,113.5,0,8,0.59767106900108,FALSE,FALSE
S12,simple,2,near,1,near,19,121.7,1,9,0.942970070998854,FALSE,FALSE
S12,simple,2,near,1,near,20,113.5,0,10,0.77163482800097,FALSE,FALSE
S12,simple,2,near,1,near,21,121.7,0,0,1.07233543199982,FALSE,FALSE
S12,simple,2,near,1,near,22,130.4,1,11,1.53317852299733,FALSE,FALSE
S12,simple,2,near,1,near,23,121.7,0,12,0.88142042400068,FALSE,FALSE
S12,simple,3,far,1,far,1,280,1,0,0.753669892001199,FALSE,FALSE
S12,simple,3,far,1,far,2,243.7,1,0,0.669381883002643,FALSE,FALSE
S12,simple,3,far,1,far,3,212.1,1,0,0.54914724199989,FALSE,FALSE
S12,simple,3,far,1,far,4,184.6,1,0,0.808718560998386,FALSE,FALSE
S12,simple,3,far,1,far,5,160.6,1,0,0.875457731999632,FALSE,FALSE
S12,simple,3,far,1,far,6,139.8,1,0,0.70875357299883,FALSE,FALSE
S12,simple,3,far,1,far,7,121.7,0,1,1.73720937200051,FALSE,FALSE
