Subject,Condition,Block,Start,StairId,Trial,Distance,Response,Reversal,RT
S01,simple,1,near,1,1,30.33874280333043,0,0,1.19588351000004
S01,simple,1,near,1,2,34.85941610767168,1,1,0.753086827999994
S01,simple,1,near,1,3,30.33874280333043,1,0,1.02345267199996
S01,simple,1,near,1,4,26.404323929111037,1,0,0.950634960999992
S01,simple,1,near,1,5,22.98013225771831,1,0,1.31178746299997
S01,simple,1,near,1,6,19.99999999999998,0,2,1.20028647000004
S01,simple,1,near,1,7,22.98013225771831,0,0,0.888082509000014
S01,simple,1,near,1,8,26.404323929111037,1,3,1.30918756699998
S01,simple,1,near,1,9,22.98013225771831,0,4,1.12966017200006
S01,simple,1,near,1,10,24.632800410562623,1,5,1.24282612600007
S01,simple,1,near,1,11,22.98013225771831,1,0,1.22116556200001
S01,simple,1,near,1,12,21.43834520559751,1,0,0.991737488000012
S01,simple,1,near,1,13,19.99999999999998,1,0,0.847672031000002
S01,simple,1,near,1,14,19.99999999999998,0,6,0.906762373999982
S01,simple,1,near,1,15,21.43834520559751,1,7,0.944514287000061
S01,simple,1,near,1,16,19.99999999999998,1,0,0.917736864000062
S01,simple,1,near,1,17,19.99999999999998,0,8,1.19049476700002
S01,simple,1,near,1,18,21.43834520559751,1,9,0.946675109000012
S01,simple,1,near,1,19,19.99999999999998,1,0,0.871275645999958
S01,simple,1,near,1,20,19.99999999999998,1,0,0.965596101999949
S01,simple,1,near,1,21,19.99999999999998,1,0,1.30498395799998
S01,simple,1,near,1,22,19.99999999999998,1,0,1.12636670900008
S01,simple,1,near,1,23,19.99999999999998,0,10,1.49329348000003
S01,simple,1,near,1,24,21.43834520559751,0,0,0.726243639000018
S01,simple,1,near,1,25,22.98013225771831,0,0,0.91544659200008
S01,simple,1,near,1,26,24.632800410562623,0,0,0.926762647000032
S01,simple,1,near,1,27,26.404323929111037,0,0,0.792131803000075
S01,simple,1,near,1,28,28.303250565635086,0,0,0.867781097999909
S01,simple,1,near,1,29,30.33874280333043,0,0,0.893961482000009
S01,simple,1,near,1,30,32.52062206608178,1,11,1.08987627099998
S01,simple,1,near,1,31,30.33874280333043,0,12,0.968786199999954
S01,simple,2,near,1,1,30.33874280333043,1,0,0.829785119000007
S01,simple,2,near,1,2,26.404323929111037,1,0,0.968079082999907
S01,simple,2,near,1,3,22.98013225771831,1,0,0.924377909999976
S01,simple,2,near,1,4,19.99999999999998,0,1,0.808996584999932
S01,simple,2,near,1,5,22.98013225771831,0,0,1.15096311799994
S01,simple,2,near,1,6,26.404323929111037,0,0,1.11922552099998
S01,simple,2,near,1,7,30.33874280333043,0,0,0.914741613000047
S01,simple,2,near,1,8,34.85941610767168,1,2,0.951455428999907
S01,simple,2,near,1,9,30.33874280333043,0,3,1.08538802600003
S01,simple,2,near,1,10,34.85941610767168,0,0,1.31584058699991
S01,simple,2,near,1,11,37.36640980909162,1,4,1.50321595100002
S01,simple,2,near,1,12,34.85941610767168,1,0,1.05337252699996
S01,simple,2,near,1,13,32.52062206608178,0,5,1.19055985700004
S01,simple,2,near,1,14,34.85941610767168,0,0,0.716189919000044
S01,simple,2,near,1,15,37.36640980909162,1,6,1.26058611399992
S01,simple,2,near,1,16,34.85941610767168,0,7,0.9610277889999
S01,simple,2,near,1,17,37.36640980909162,1,8,0.909501714999919
S01,simple,2,near,1,18,34.85941610767168,1,0,1.06614291799997
S01,simple,2,near,1,19,32.52062206608178,0,9,1.28546028300002
S01,simple,2,near,1,20,34.85941610767168,1,10,0.906599094999933
S01,simple,2,near,1,21,32.52062206608178,1,0,0.743798118999962
S01,simple,2,near,1,22,30.33874280333043,0,11,0.770704457000079
S01,simple,2,near,1,23,32.52062206608178,0,0,0.86156582000001
S01,simple,2,near,1,24,34.85941610767168,1,12,1.21207947899995
S01,simple,3,far,1,1,280.00000000000017,1,0,0.719908845000077
S01,simple,3,far,1,2,243.68876284944497,1,0,0.734684238
S01,simple,3,far,1,3,212.08647549676277,1,0,0.848716029000002
S01,simple,3,far,1,4,184.58246725323292,1,0,0.920229388999928
S01,simple,3,far,1,5,160.64526103085177,1,0,0.934282804999953
S01,simple,3,far,1,6,139.81230327941006,1,0,0.953326772000082
S01,simple,3,far,1,7,121.68102577603862,1,0,0.856375052999965
S01,simple,3,far,1,8,105.90106654862237,1,0,0.847774272000038
S01,simple,3,far,1,9,92.16749961310987,0,1,1.53588990399999
S01,simple,3,far,1,10,105.90106654862237,0,0,1.02555479
S01,simple,3,far,1,11,121.68102577603862,0,0,1.45008214300003
S01,simple,3,far,1,12,139.81230327941006,1,2,1.50029874000006
S01,simple,3,far,1,13,121.68102577603862,1,0,0.96567092500004
S01,simple,3,far,1,14,105.90106654862237,1,0,1.33583738799996
S01,simple,3,far,1,15,92.16749961310987,0,3,0.827419558999964
S01,simple,3,far,1,16,105.90106654862237,0,0,0.791464375000032
S01,simple,3,far,1,17,113.51718111551617,0,0,0.987244710000027
S01,simple,3,far,1,18,121.68102577603862,0,0,1.22566338700005
S01,simple,3,far,1,19,130.43199177789637,0,0,1.48850813000001
S01,simple,3,far,1,20,139.81230327941006,1,4,1.1286171910001
S01,simple,3,far,1,21,130.43199177789637,1,0,1.1653236300001
S01,simple,3,far,1,22,121.68102577603862,1,0,1.17318316500018
S01,simple,3,far,1,23,113.51718111551617,1,0,1.26495838899996
S01,simple,3,far,1,24,105.90106654862237,0,5,1.00835281899981
S01,simple,3,far,1,25,113.51718111551617,0,0,1.07821398500005
S01,simple,3,far,1,26,121.68102577603862,0,0,0.937939695000068
S01,simple,3,far,1,27,130.43199177789637,0,0,1.06691470500004
S01,simple,3,far,1,28,139.81230327941006,0,0,1.23217793799995
S01,simple,3,far,1,29,149.86722108468442,1,6,1.34864265299984
S01,simple,3,far,1,30,139.81230327941006,1,0,1.23463149899999
S01,simple,3,far,1,31,130.43199177789637,1,0,1.16571168799987
S01,simple,3,far,1,32,121.68102577603862,1,0,1.19808540100007
S01,simple,3,far,1,33,113.51718111551617,1,0,1.37677338799995
S01,simple,3,far,1,34,105.90106654862237,0,7,1.01614762200006
S01,simple,3,far,1,35,113.51718111551617,0,0,0.794373375000077
S01,simple,3,far,1,36,121.68102577603862,0,0,0.878245621999895
S01,simple,3,far,1,37,130.43199177789637,0,0,1.09167062700021
S01,simple,3,far,1,38,139.81230327941006,1,8,0.88774837699998
S01,simple,3,far,1,39,130.43199177789637,1,0,1.26008259200012
S01,simple,3,far,1,40,121.68102577603862,1,0,0.793786712999918
S01,simple,3,far,1,41,113.51718111551617,1,0,0.999936198999876
S01,simple,3,far,1,42,105.90106654862237,1,0,0.781192219999866
S01,simple,3,far,1,43,98.79593367213131,1,0,1.23694808100004
S01,simple,3,far,1,44,92.16749961310987,0,9,1.31420833399989
S01,simple,3,far,1,45,98.79593367213131,0,0,0.862796921999916
S01,simple,3,far,1,46,105.90106654862237,0,0,0.842147629999999
S01,simple,3,far,1,47,113.51718111551617,0,0,0.866778298000099
S01,simple,3,far,1,48,121.68102577603862,0,0,1.01772005900011
S01,simple,3,far,1,49,130.43199177789637,1,10,1.26926857500007
S01,simple,3,far,1,50,121.68102577603862,1,0,1.30093729400005
S01,simple,3,far,1,51,113.51718111551617,1,0,1.40272738900012
S01,simple,3,far,1,52,105.90106654862237,0,11,1.19250948299987
S01,simple,3,far,1,53,113.51718111551617,0,0,1.46442290999994
S01,simple,3,far,1,54,121.68102577603862,1,12,1.92186205899998
S01,simple,4,far,1,1,280.00000000000017,1,0,0.892578939000032
S01,simple,4,far,1,2,243.68876284944497,1,0,1.01407157000017
S01,simple,4,far,1,3,212.08647549676277,1,0,0.882748401000072
S01,simple,4,far,1,4,184.58246725323292,1,0,1.15780088699989
S01,simple,4,far,1,5,160.64526103085177,1,0,1.0103527660001
S01,simple,4,far,1,6,139.81230327941006,1,0,0.870883913999933
S01,simple,4,far,1,7,121.68102577603862,1,0,1.22411694099992
S01,simple,4,far,1,8,105.90106654862237,0,1,1.23932061400001
S01,simple,4,far,1,9,121.68102577603862,0,0,1.22597647500015
S01,simple,4,far,1,10,139.81230327941006,1,2,1.39435779300015
S01,simple,4,far,1,11,121.68102577603862,0,3,0.990176063000035
S01,simple,4,far,1,12,139.81230327941006,0,0,1.3759214380002
S01,simple,4,far,1,13,149.86722108468442,1,4,0.734919432999959
S01,simple,4,far,1,14,139.81230327941006,1,0,0.8425523599999
S01,simple,4,far,1,15,130.43199177789637,1,0,1.12570462300005
S01,simple,4,far,1,16,121.68102577603862,0,5,1.34229495399995
S01,simple,4,far,1,17,130.43199177789637,0,0,1.34871208200002
S01,simple,4,far,1,18,139.81230327941006,1,6,0.896683552000013
S01,simple,4,far,1,19,130.43199177789637,0,7,1.02669595800012
S01,simple,4,far,1,20,139.81230327941006,1,8,1.40897495800004
S01,simple,4,far,1,21,130.43199177789637,0,9,0.915550621999955
S01,simple,4,far,1,22,139.81230327941006,0,0,1.19898104100002
S01,simple,4,far,1,23,149.86722108468442,1,10,0.815146111000104
S01,simple,4,far,1,24,139.81230327941006,1,0,1.14414606200012
S01,simple,4,far,1,25,130.43199177789637,1,0,0.82384846900004
S01,simple,4,far,1,26,121.68102577603862,1,0,1.09188119800001
S01,simple,4,far,1,27,113.51718111551617,0,11,0.945061460000034
S01,simple,4,far,1,28,121.68102577603862,1,12,1.56756401199982
S02,simple,1,near,1,1,30.33874280333043,0,0,0.561580691000017
S02,simple,1,near,1,2,34.85941610767168,0,0,0.616236328000014
S02,simple,1,near,1,3,40.053699629056595,0,0,0.63354195500051
S02,simple,1,near,1,4,46.02196574433174,0,0,0.545449653000105
S02,simple,1,near,1,5,52.87954297824629,0,0,0.512918247000016
S02,simple,1,near,1,6,60.758944568390056,0,0,0.793329385999641
S02,simple,1,near,1,7,69.81242910104828,0,0,0.979525759999888
S02,simple,1,near,1,8,80.21494269873368,0,0,0.555755454999598
S02,simple,1,near,1,9,92.16749961310987,1,1,1.44249731299988
S02,simple,1,near,1,10,80.21494269873368,0,2,1.49194789400008
S02,simple,1,near,1,11,92.16749961310987,1,3,2.12468407899996
S02,simple,1,near,1,12,80.21494269873368,0,4,1.45997945699946
S02,simple,1,near,1,13,85.98378161113389,1,5,1.31337090899979
S02,simple,1,near,1,14,80.21494269873368,1,0,1.91536931300016
S02,simple,1,near,1,15,74.83314773547879,0,6,0.77093104100004
S02,simple,1,near,1,16,80.21494269873368,1,7,1.71131633700043
S02,simple,1,near,1,17,74.83314773547879,0,8,1.16715020399988
S02,simple,1,near,1,18,80.21494269873368,0,0,2.07022579099976
S02,simple,1,near,1,19,85.98378161113389,0,0,3.0507408630001
S02,simple,1,near,1,20,92.16749961310987,1,9,0.959526276999895
S02,simple,1,near,1,21,85.98378161113389,0,10,3.10496652899928
S02,simple,1,near,1,22,92.16749961310987,0,0,2.65395311199973
S02,simple,1,near,1,23,98.79593367213035,1,11,0.781861598000432
S02,simple,1,near,1,24,92.16749961310987,1,0,3.57149956099965
S02,simple,1,near,1,25,85.98378161113389,0,12,1.28618312199978
S02,simple,2,far,1,1,280.00000000000017,1,0,0.74380523400032
S02,simple,2,far,1,2,243.68876284944497,1,0,1.19500165800036
S02,simple,2,far,1,3,212.08647549676277,1,0,0.654033206000349
S02,simple,2,far,1,4,184.58246725323292,1,0,0.751982761000363
S02,simple,2,far,1,5,160.64526103085177,1,0,0.864040886999646
S02,simple,2,far,1,6,139.81230327941006,1,0,0.96434957000019506
S02,simple,2,far,1,7,121.68102577603862,1,0,1.51290151699959
S02,simple,2,far,1,8,105.90106654862237,1,0,2.35231937900062
S02,simple,2,far,1,9,92.16749961310987,0,1,0.542426266999428
S02,simple,2,far,1,10,105.90106654862237,0,0,0.696449678000135
S02,simple,2,far,1,11,121.68102577603862,1,2,0.825626921000548
S02,simple,2,far,1,12,105.90106654862237,0,3,0.865563872999701
S02,simple,2,far,1,13,121.68102577603862,1,4,0.845749998999963
S02,simple,2,far,1,14,113.51718111551617,1,0,1.294026562
S02,simple,2,far,1,15,105.90106654862237,0,5,1.05808166999941
S02,simple,2,far,1,16,113.51718111551617,1,6,1.39285807899978
S02,simple,2,far,1,17,105.90106654862237,0,7,3.43774084800043
S02,simple,2,far,1,18,113.51718111551617,1,8,0.973935744999835
S02,simple,2,far,1,19,105.90106654862237,1,0,2.04500379199999
S02,simple,2,far,1,20,98.79593367213131,0,9,0.827811988000576
S02,simple,2,far,1,21,105.90106654862237,0,0,3.15860741699998
S02,simple,2,far,1,22,113.51718111551617,1,10,0.725291017999552
S02,simple,2,far,1,23,105.90106654862237,1,0,2.60232747000009
S02,simple,2,far,1,24,98.79593367213131,0,11,2.39990117899924
S02,simple,2,far,1,25,105.90106654862237,0,0,2.54329233499993
S02,simple,2,far,1,26,113.51718111551617,1,12,0.85048888899928
S02,simple,3,near,1,1,30.33874280333043,0,0,0.5560091440002
S02,simple,3,near,1,2,34.85941610767168,0,0,0.478778548999799
S02,simple,3,near,1,3,40.053699629056595,0,0,0.548304562999874
S02,simple,3,near,1,4,46.02196574433174,0,0,1.53996384999937
S02,simple,3,near,1,5,52.87954297824629,0,0,0.967839007000293
S02,simple,3,near,1,6,60.758944568390056,0,0,0.519336764999935
S02,simple,3,near,1,7,69.81242910104828,0,0,0.876698529999885
S02,simple,3,near,1,8,80.21494269873368,0,0,0.931711088000156
S02,simple,3,near,1,9,92.16749961310987,0,0,1.61282886299978
S02,simple,3,near,1,10,105.90106654862237,0,0,1.95597451100002
S02,simple,3,near,1,11,121.68102577603862,1,1,0.674705274999724
S02,simple,3,near,1,12,105.90106654862237,1,0,1.10708227099985
S02,simple,3,near,1,13,92.16749961310987,0,2,0.989123977999952
S02,simple,3,near,1,14,105.90106654862237,0,0,1.99087319699993
S02,simple,3,near,1,15,113.51718111551617,1,3,0.682893513000636
S02,simple,3,near,1,16,105.90106654862237,1,0,2.14321477999965
S02,simple,3,near,1,17,98.79593367213035,1,0,1.3458934500004
S02,simple,3,near,1,18,92.16749961310987,0,4,1.27598853099971
S02,simple,3,near,1,19,98.79593367213035,1,5,1.64703015400028
S02,simple,3,near,1,20,92.16749961310987,0,6,1.50038511499952
S02,simple,3,near,1,21,98.79593367213035,0,0,1.87541268000041
S02,simple,3,near,1,22,105.90106654862237,1,7,7.6011333739998
S02,simple,3,near,1,23,98.79593367213035,0,8,0.701535076000255
S02,simple,3,near,1,24,105.90106654862237,0,0,1.52944860499974
S02,simple,3,near,1,25,113.51718111551617,1,9,0.976586350000616
S02,simple,3,near,1,26,105.90106654862237,1,0,1.01088979699944
S02,simple,3,near,1,27,98.79593367213035,0,10,2.36469485099951
S02,simple,3,near,1,28,105.90106654862237,1,11,4.35285147200011
S02,simple,3,near,1,29,98.79593367213035,0,12,0.825628126999618
S02,simple,4,far,1,1,280.00000000000017,1,0,0.657221768999989
S02,simple,4,far,1,2,243.68876284944497,1,0,0.82687753800019
S02,simple,4,far,1,3,212.08647549676277,1,0,1.05353113300043
S02,simple,4,far,1,4,184.58246725323292,1,0,0.879012702999717
S02,simple,4,far,1,5,160.64526103085177,1,0,0.896593946999928
S02,simple,4,far,1,6,139.81230327941006,1,0,1.52288505999968
S02,simple,4,far,1,7,121.68102577603862,1,0,2.90424051399987
S02,simple,4,far,1,8,105.90106654862237,0,1,1.72618809699998
S02,simple,4,far,1,9,121.68102577603862,0,0,1.99991789600062
S02,simple,4,far,1,10,139.81230327941006,1,2,1.22084657199957
S02,simple,4,far,1,11,121.68102577603862,1,0,2.21939310000016
S02,simple,4,far,1,12,113.51718111551617,0,3,2.74724763100039
S02,simple,4,far,1,13,121.68102577603862,1,4,2.85679331899973
S02,simple,4,far,1,14,113.51718111551617,0,5,1.64498097700016
S02,simple,4,far,1,15,121.68102577603862,0,0,2.29280904200004
S02,simple,4,far,1,16,130.43199177789637,1,6,1.95577927100021
S02,simple,4,far,1,17,121.68102577603862,1,0,4.12884351800039
S02,simple,4,far,1,18,113.51718111551617,0,7,1.24632755600032
S02,simple,4,far,1,19,121.68102577603862,0,0,2.95192061000034
S02,simple,4,far,1,20,130.43199177789637,1,8,1.46269274499991
S02,simple,4,far,1,21,121.68102577603862,1,0,1.6526782459996
S02,simple,4,far,1,22,113.51718111551617,1,0,7.1508032339998
S02,simple,4,far,1,23,105.90106654862237,0,9,1.24270455499936
S02,simple,4,far,1,24,113.51718111551617,0,0,2.3770816289998
S02,simple,4,far,1,25,121.68102577603862,1,10,2.05384018099994
S02,simple,4,far,1,26,113.51718111551617,0,11,2.5716701350002
S02,simple,4,far,1,27,121.68102577603862,1,12,1.95626041299965
S03,simple,1,near,1,1,30.33874280333043,1,0,1.82120422299977
S03,simple,1,near,1,2,26.404323929111037,0,1,4.10525871000027
S03,simple,1,near,1,3,30.33874280333043,1,2,1.24286133400074
S03,simple,1,near,1,4,26.404323929111037,1,0,0.944915371999741
S03,simple,1,near,1,5,24.632800410562623,1,0,1.36743873399973
S03,simple,1,near,1,6,22.98013225771831,1,0,1.42151457799991
S03,simple,1,near,1,7,21.43834520559751,1,0,1.20866306500011
S03,simple,1,near,1,8,19.99999999999998,0,3,1.47092438799973
S03,simple,1,near,1,9,21.43834520559751,0,0,1.78664432799997
S03,simple,1,near,1,10,22.98013225771831,0,0,1.48303574999954
S03,simple,1,near,1,11,24.632800410562623,0,0,2.39383285700023
S03,simple,1,near,1,12,26.404323929111037,0,0,2.33241065699985
S03,simple,1,near,1,13,28.303250565635086,0,0,2.28875432399946
S03,simple,1,near,1,14,30.33874280333043,0,0,1.76070865099973
S03,simple,1,near,1,15,32.52062206608178,0,0,1.8810994359992
S03,simple,1,near,1,16,34.85941610767168,0,0,1.69867310399968
S03,simple,1,near,1,17,37.36640980909162,0,0,2.36507076900034
S03,simple,1,near,1,18,40.05369962905618,0,0,1.69158446399979
S03,simple,1,near,1,19,42.934251970451015,0,0,1.06750416299928
S03,simple,1,near,1,20,46.02196574433174,0,0,1.19346250099989
S03,simple,1,near,1,21,49.33173943335841,0,0,1.78857782799969
S03,simple,1,near,1,22,52.87954297824629,0,0,1.24427089599976
S03,simple,1,near,1,23,56.682494834093774,0,0,1.04707837499973
S03,simple,1,near,1,24,60.75894456838941,0,0,2.01786933399944
S03,simple,1,near,1,25,65.12856139924486,0,0,1.19557754299967
S03,simple,1,near,1,26,69.81242910104828,0,0,1.89947331799976
S03,simple,1,near,1,27,74.83314773547879,1,4,1.38556445199993
S03,simple,1,near,1,28,69.81242910104828,1,0,1.81262442600018
S03,simple,1,near,1,29,65.12856139924486,1,0,1.83495038599995
S03,simple,1,near,1,30,60.75894456838941,1,0,1.99146836799991
S03,simple,1,near,1,31,56.682494834093774,1,0,1.1035421850001501
S03,simple,1,near,1,32,52.87954297824629,1,0,1.03089696100051
S03,simple,1,near,1,33,49.33173943335841,0,5,1.06588663399998
S03,simple,1,near,1,34,52.87954297824629,0,0,1.71124618100021
S03,simple,1,near,1,35,56.682494834093774,0,0,2.3518605119998
S03,simple,1,near,1,36,60.75894456838941,0,0,1.44262602900017
S03,simple,1,near,1,37,65.12856139924486,1,6,1.50039223400017
S03,simple,1,near,1,38,60.75894456838941,0,7,1.84910817999935
S03,simple,1,near,1,39,65.12856139924486,0,0,1.46265050499915
S03,simple,1,near,1,40,69.81242910104828,0,0,1.54682766299993
S03,simple,1,near,1,41,74.83314773547879,1,8,0.974515120000433
S03,simple,1,near,1,42,69.81242910104828,1,0,1.79000226000062
S03,simple,1,near,1,43,65.12856139924486,0,9,1.42461128299965
S03,simple,1,near,1,44,69.81242910104828,1,10,2.21965038000053
S03,simple,1,near,1,45,65.12856139924486,0,11,1.83714963999955
S03,simple,1,near,1,46,69.81242910104828,0,0,1.34634417699999
S03,simple,1,near,1,47,74.83314773547879,0,0,1.78249269900061
S03,simple,1,near,1,48,80.21494269873368,1,12,1.26082147400029
S03,simple,2,far,1,1,280.00000000000017,1,0,1.44286904599994
S03,simple,2,far,1,2,243.68876284944497,1,0,0.721244031999959
S03,simple,2,far,1,3,212.08647549676277,1,0,0.843750518999514
S03,simple,2,far,1,4,184.58246725323292,1,0,0.811120287000449
S03,simple,2,far,1,5,160.64526103085177,1,0,0.696624310000516
S03,simple,2,far,1,6,139.81230327941006,1,0,0.775732691000485
S03,simple,2,far,1,7,121.68102577603862,1,0,0.830986007999854
S03,simple,2,far,1,8,105.90106654862237,1,0,1.69652236000002
S03,simple,2,far,1,9,92.16749961310987,0,1,1.62246918399978
S03,simple,2,far,1,10,105.90106654862237,1,2,2.75992727300036
S03,simple,2,far,1,11,92.16749961310987,1,0,0.943569156999729
S03,simple,2,far,1,12,85.98378161113389,1,0,1.80443585600005
S03,simple,2,far,1,13,80.21494269873368,0,3,0.948891490000278
S03,simple,2,far,1,14,85.98378161113389,0,0,0.999671515000045
S03,simple,2,far,1,15,92.16749961310987,1,4,1.51395688199955
S03,simple,2,far,1,16,85.98378161113389,1,0,1.09344415699979
S03,simple,2,far,1,17,80.21494269873368,1,0,1.04872298900045
S03,simple,2,far,1,18,74.83314773547879,0,5,0.923835864000466
S03,simple,2,far,1,19,80.21494269873368,0,0,0.816505801999483
S03,simple,2,far,1,20,85.98378161113389,0,0,0.900837963999948
S03,simple,2,far,1,21,92.16749961310987,0,0,0.943616905999988
S03,simple,2,far,1,22,98.79593367213131,1,6,1.02201185100057
S03,simple,2,far,1,23,92.16749961310987,1,0,1.49693221000052
S03,simple,2,far,1,24,85.98378161113389,1,0,1.13615946600021
S03,simple,2,far,1,25,80.21494269873368,1,0,1.06055403499977
S03,simple,2,far,1,26,74.83314773547879,0,7,2.27106453499982
S03,simple,2,far,1,27,80.21494269873368,0,0,0.814304329999686
S03,simple,2,far,1,28,85.98378161113389,0,0,0.809126272999492
S03,simple,2,far,1,29,92.16749961310987,0,0,0.889448109000114
S03,simple,2,far,1,30,98.79593367213131,0,0,1.79805424500046
S03,simple,2,far,1,31,105.90106654862237,1,8,0.825082407000082
S03,simple,2,far,1,32,98.79593367213131,1,0,0.830542659999992
S03,simple,2,far,1,33,92.16749961310987,1,0,0.873431541000173
S03,simple,2,far,1,34,85.98378161113389,1,0,1.02876098600063
S03,simple,2,far,1,35,80.21494269873368,1,0,0.997457335000036
S03,simple,2,far,1,36,74.83314773547879,0,9,0.859218005000002
S03,simple,2,far,1,37,80.21494269873368,0,0,0.869066534000012
S03,simple,2,far,1,38,85.98378161113389,0,0,1.19319984899994
S03,simple,2,far,1,39,92.16749961310987,1,10,0.928680065000663
S03,simple,2,far,1,40,85.98378161113389,1,0,1.59081285899993
S03,simple,2,far,1,41,80.21494269873368,1,0,1.27132460800021
S03,simple,2,far,1,42,74.83314773547879,1,0,1.06434958199952
S03,simple,2,far,1,43,69.81242910104828,0,11,0.812885146000554
S03,simple,2,far,1,44,74.83314773547879,0,0,0.621675927000069
S03,simple,2,far,1,45,80.21494269873368,0,0,0.692837956999938
S03,simple,2,far,1,46,85.98378161113389,0,0,0.749260155999764
S03,simple,2,far,1,47,92.16749961310987,1,12,0.7811872150005
S03,simple,3,far,1,1,280.00000000000017,1,0,0.722618332999446
S03,simple,3,far,1,2,243.68876284944497,1,0,0.487309080000159
S03,simple,3,far,1,3,212.08647549676277,1,0,0.595959689000665
S03,simple,3,far,1,4,184.58246725323292,1,0,0.625112036000246
S03,simple,3,far,1,5,160.64526103085177,1,0,0.818341707999934
S03,simple,3,far,1,6,139.81230327941006,1,0,0.708554416999505
S03,simple,3,far,1,7,121.68102577603862,1,0,0.761506048999763
S03,simple,3,far,1,8,105.90106654862237,0,1,0.930198990000463
S03,simple,3,far,1,9,121.68102577603862,1,2,0.970084485999905
S03,simple,3,far,1,10,105.90106654862237,0,3,0.738526487999479
S03,simple,3,far,1,11,113.51718111551617,0,0,1.48132582699964
S03,simple,3,far,1,12,121.68102577603862,1,4,0.806041980999908
S03,simple,3,far,1,13,113.51718111551617,1,0,1.28555166899969
S03,simple,3,far,1,14,105.90106654862237,1,0,0.72687363499972
S03,simple,3,far,1,15,98.79593367213131,1,0,0.889921015999789
S03,simple,3,far,1,16,92.16749961310987,1,0,0.901379934000033
S03,simple,3,far,1,17,85.98378161113389,0,5,1.1602789429998701
S03,simple,3,far,1,18,92.16749961310987,1,6,1.12466640000002
S03,simple,3,far,1,19,85.98378161113389,1,0,0.9663242609995
S03,simple,3,far,1,20,80.21494269873368,0,7,0.942769495999528
S03,simple,3,far,1,21,85.98378161113389,0,0,1.07330774499951
S03,simple,3,far,1,22,92.16749961310987,0,0,1.23424030199931
S03,simple,3,far,1,23,98.79593367213131,1,8,0.988795315000061
S03,simple,3,far,1,24,92.16749961310987,1,0,0.884100838999984
S03,simple,3,far,1,25,85.98378161113389,0,9,0.666457143999651
S03,simple,3,far,1,26,92.16749961310987,0,0,0.940739583999857
S03,simple,3,far,1,27,98.79593367213131,0,0,1.36741502699988
S03,simple,3,far,1,28,105.90106654862237,0,0,0.790188603000388
S03,simple,3,far,1,29,113.51718111551617,1,10,0.853665984000145
S03,simple,3,far,1,30,105.90106654862237,1,0,0.781388909999805
S03,simple,3,far,1,31,98.79593367213131,1,0,0.831352916000469
S03,simple,3,far,1,32,92.16749961310987,1,0,1.18105282900069
S03,simple,3,far,1,33,85.98378161113389,1,0,1.05203326500032
S03,simple,3,far,1,34,80.21494269873368,0,11,1.40308268900026
S03,simple,3,far,1,35,85.98378161113389,0,0,0.913910226999178
S03,simple,3,far,1,36,92.16749961310987,0,0,1.29283891200066
S03,simple,3,far,1,37,98.79593367213131,1,12,0.688439171000027
S03,simple,4,near,1,1,30.33874280333043,0,0,0.734804730999713
S03,simple,4,near,1,2,34.85941610767168,0,0,0.637984318000235
S03,simple,4,near,1,3,40.053699629056595,0,0,0.749037374000181
S03,simple,4,near,1,4,46.02196574433174,0,0,0.854468402999373
S03,simple,4,near,1,5,52.87954297824629,0,0,1.29348178200053
S03,simple,4,near,1,6,60.758944568390056,1,1,1.09667473300033
S03,simple,4,near,1,7,52.87954297824629,0,2,0.695797633000439
S03,simple,4,near,1,8,60.758944568390056,0,0,0.56612235800003
S03,simple,4,near,1,9,65.12856139924486,0,0,0.839137938999556
S03,simple,4,near,1,10,69.81242910104828,0,0,0.629496983000536
S03,simple,4,near,1,11,74.83314773547879,0,0,0.733209889999671
S03,simple,4,near,1,12,80.21494269873368,1,3,0.882188887000666
S03,simple,4,near,1,13,74.83314773547879,1,0,0.719252568999764
S03,simple,4,near,1,14,69.81242910104828,1,0,0.722386684000412
S03,simple,4,near,1,15,65.12856139924486,1,0,0.78522371199960606
S03,simple,4,near,1,16,60.758944568390056,0,4,1.44345938700008
S03,simple,4,near,1,17,65.12856139924486,0,0,1.08238806099962
S03,simple,4,near,1,18,69.81242910104828,0,0,0.862655085999904
S03,simple,4,near,1,19,74.83314773547879,0,0,0.910211147000155
S03,simple,4,near,1,20,80.21494269873368,0,0,0.670239478999974
S03,simple,4,near,1,21,85.98378161113389,0,0,0.94705885500025
S03,simple,4,near,1,22,92.16749961310987,1,5,0.741454134000378
S03,simple,4,near,1,23,85.98378161113389,1,0,1.14115383700027
S03,simple,4,near,1,24,80.21494269873368,1,0,0.915673547000551
S03,simple,4,near,1,25,74.83314773547879,1,0,0.644233965999774
S03,simple,4,near,1,26,69.81242910104828,1,0,1.0055780090006
S03,simple,4,near,1,27,65.12856139924486,0,6,1.18352038600005
S03,simple,4,near,1,28,69.81242910104828,0,0,0.715141720000247
S03,simple,4,near,1,29,74.83314773547879,0,0,1.16125974599981
S03,simple,4,near,1,30,80.21494269873368,0,0,1.04616062099922
S03,simple,4,near,1,31,85.98378161113389,0,0,0.833276077999471
S03,simple,4,near,1,32,92.16749961310987,1,7,0.868134839000049
S03,simple,4,near,1,33,85.98378161113389,1,0,0.814065165000102
S03,simple,4,near,1,34,80.21494269873368,1,0,0.507107062999239
S03,simple,4,near,1,35,74.83314773547879,0,8,2.01769500099999
S03,simple,4,near,1,36,80.21494269873368,0,0,1.15607230700061
S03,simple,4,near,1,37,85.98378161113389,1,9,0.958936597000502
S03,simple,4,near,1,38,80.21494269873368,1,0,1.65238150099958
S03,simple,4,near,1,39,74.83314773547879,0,10,0.939758204999634
S03,simple,4,near,1,40,80.21494269873368,0,0,0.814931367000099
S03,simple,4,near,1,41,85.98378161113389,0,0,1.36555625599976
S03,simple,4,near,1,42,92.16749961310987,1,11,0.993477261000407
S03,simple,4,near,1,43,85.98378161113389,1,0,0.409761892000461
S03,simple,4,near,1,44,80.21494269873368,1,0,0.753146219999508
S03,simple,4,near,1,45,74.83314773547879,0,12,0.838567537000017
S04,simple,1,far,1,1,280.00000000000017,1,0,1.03076180799872
S04,simple,1,far,1,2,243.68876284944497,1,0,1.13265153499924
S04,simple,1,far,1,3,212.08647549676277,1,0,1.6771133860002
S04,simple,1,far,1,4,184.58246725323292,1,0,2.0671551000014
S04,simple,1,far,1,5,160.64526103085177,1,0,3.58722802199918
S04,simple,1,far,1,6,139.81230327941006,0,1,1.36514909899961
S04,simple,1,far,1,7,160.64526103085177,1,2,3.4117710190003
S04,simple,1,far,1,8,139.81230327941006,0,3,2.22951307299991
S04,simple,1,far,1,9,149.86722108468442,0,0,5.33490799500032
S04,simple,1,far,1,10,160.64526103085177,1,4,1.17428247299904
S04,simple,1,far,1,11,149.86722108468442,0,5,3.26949525199961
S04,simple,1,far,1,12,160.64526103085177,1,6,2.15933341699929
S04,simple,1,far,1,13,149.86722108468442,0,7,2.49179350200029
S04,simple,1,far,1,14,160.64526103085177,0,0,1.4983776299996
S04,simple,1,far,1,15,172.19842808113626,1,8,1.98966569000004
S04,simple,1,far,1,16,160.64526103085177,1,0,2.62318011199932
S04,simple,1,far,1,17,149.86722108468442,0,9,3.27994039799887
S04,simple,1,far,1,18,160.64526103085177,1,10,0.993056256000273
S04,simple,1,far,1,19,149.86722108468442,1,0,2.15915909199975
S04,simple,1,far,1,20,139.81230327941006,0,11,1.02736628999992
S04,simple,1,far,1,21,149.86722108468442,1,12,1.0095357070004
S04,simple,2,far,1,1,280.00000000000017,1,0,1.12947790399994
S04,simple,2,far,1,2,243.68876284944497,1,0,0.883482707000439
S04,simple,2,far,1,3,212.08647549676277,1,0,1.22663034200013
S04,simple,2,far,1,4,184.58246725323292,1,0,1.55518159099847
S04,simple,2,far,1,5,160.64526103085177,0,1,1.00220509199971
S04,simple,2,far,1,6,184.58246725323292,1,2,1.50833349599998
S04,simple,2,far,1,7,160.64526103085177,0,3,5.83982460499828
S04,simple,2,far,1,8,172.19842808113626,1,4,1.31388948400127
S04,simple,2,far,1,9,160.64526103085177,1,0,1.16766584300058
S04,simple,2,far,1,10,149.86722108468442,0,5,0.998053461000382
S04,simple,2,far,1,11,160.64526103085177,1,6,1.11310466800023
S04,simple,2,far,1,12,149.86722108468442,1,0,6.59811048399933
S04,simple,2,far,1,13,139.81230327941006,0,7,1.05796050499885
S04,simple,2,far,1,14,149.86722108468442,1,8,1.09036466300131
S04,simple,2,far,1,15,139.81230327941006,0,9,0.676326019000044
S04,simple,2,far,1,16,149.86722108468442,0,0,3.3812461159996
S04,simple,2,far,1,17,160.64526103085177,1,10,0.670505919999414
S04,simple,2,far,1,18,149.86722108468442,1,0,1.11083569899893
S04,simple,2,far,1,19,139.81230327941006,0,11,0.936130441999921
S04,simple,2,far,1,20,149.86722108468442,1,12,1.16549395999937
S04,simple,3,near,1,1,30.33874280333043,0,0,0.908477154998764
S04,simple,3,near,1,2,34.85941610767168,0,0,0.699669511999673
S04,simple,3,near,1,3,40.053699629056595,0,0,0.678060112999447
S04,simple,3,near,1,4,46.02196574433174,0,0,0.625955266001256
S04,simple,3,near,1,5,52.87954297824629,0,0,0.911659900999439
S04,simple,3,near,1,6,60.758944568390056,0,0,0.835208499000146
S04,simple,3,near,1,7,69.81242910104828,0,0,0.962006072999429
S04,simple,3,near,1,8,80.21494269873368,0,0,1.17086484199899
S04,simple,3,near,1,9,92.16749961310987,0,0,1.06593858100132
S04,simple,3,near,1,10,105.90106654862237,0,0,1.42496429900166
S04,simple,3,near,1,11,121.68102577603862,1,1,0.676284176000991
S04,simple,3,near,1,12,105.90106654862237,1,0,1.01070887399874
S04,simple,3,near,1,13,92.16749961310987,0,2,4.0043908509997
S04,simple,3,near,1,14,105.90106654862237,0,0,1.74828607000018
S04,simple,3,near,1,15,113.51718111551617,1,3,1.61459542100056
S04,simple,3,near,1,16,105.90106654862237,1,0,0.7037391319991
S04,simple,3,near,1,17,98.79593367213035,0,4,1.71457189399916
S04,simple,3,near,1,18,105.90106654862237,1,5,1.03650735699921
S04,simple,3,near,1,19,98.79593367213035,0,6,5.77419380699939
S04,simple,3,near,1,20,105.90106654862237,1,7,2.75768532499933
S04,simple,3,near,1,21,98.79593367213035,0,8,0.90647211400028
S04,simple,3,near,1,22,105.90106654862237,0,0,1.05696380900008
S04,simple,3,near,1,23,113.51718111551617,1,9,4.09607145399968
S04,simple,3,near,1,24,105.90106654862237,1,0,1.10414149099961
S04,simple,3,near,1,25,98.79593367213035,0,10,3.87552069099911
S04,simple,3,near,1,26,105.90106654862237,1,11,0.951054925999415
S04,simple,3,near,1,27,98.79593367213035,0,12,4.39740318900112
S04,simple,4,near,1,1,30.33874280333043,0,0,0.962706301999788
S04,simple,4,near,1,2,34.85941610767168,0,0,0.782114665998961
S04,simple,4,near,1,3,40.053699629056595,0,0,0.886177365999174
S04,simple,4,near,1,4,46.02196574433174,0,0,0.789071377001164
S04,simple,4,near,1,5,52.87954297824629,0,0,0.667418109000209
S04,simple,4,near,1,6,60.758944568390056,0,0,0.866393128000709
S04,simple,4,near,1,7,69.81242910104828,0,0,1.13498558100036
S04,simple,4,near,1,8,80.21494269873368,0,0,2.19862737300173
S04,simple,4,near,1,9,92.16749961310987,1,1,0.581322339001417
S04,simple,4,near,1,10,80.21494269873368,1,0,0.635542234998866
S04,simple,4,near,1,11,69.81242910104828,1,0,0.95335986399914
S04,simple,4,near,1,12,60.758944568390056,1,0,2.46584594399974
S04,simple,4,near,1,13,52.87954297824629,0,2,0.667845944000874
S04,simple,4,near,1,14,60.758944568390056,0,0,1.01007801100059
S04,simple,4,near,1,15,65.12856139924486,0,0,1.55822427800013
S04,simple,4,near,1,16,69.81242910104828,1,3,0.798036221000075
S04,simple,4,near,1,17,65.12856139924486,1,0,6.6670369600015
S04,simple,4,near,1,18,60.758944568390056,0,4,0.590234084000258
S04,simple,4,near,1,19,65.12856139924486,1,5,0.909274796000318
S04,simple,4,near,1,20,60.758944568390056,0,6,1.78469164199851
S04,simple,4,near,1,21,65.12856139924486,0,0,0.909368104999885
S04,simple,4,near,1,22,69.81242910104828,0,0,1.47539225000037
S04,simple,4,near,1,23,74.83314773547879,1,7,1.28351280599964
S04,simple,4,near,1,24,69.81242910104828,1,0,0.656704692999483
S04,simple,4,near,1,25,65.12856139924486,1,0,1.95130034000067
S04,simple,4,near,1,26,60.758944568390056,0,8,3.94344213600016
S04,simple,4,near,1,27,65.12856139924486,0,0,0.818612824999946
S04,simple,4,near,1,28,69.81242910104828,1,9,1.31947943600062
S04,simple,4,near,1,29,65.12856139924486,0,10,3.62369150400082
S04,simple,4,near,1,30,69.81242910104828,1,11,0.566737058999934
S04,simple,4,near,1,31,65.12856139924486,1,0,0.970379049000258
S04,simple,4,near,1,32,60.758944568390056,0,12,2.54838633899999
S05,simple,1,near,1,1,30.33874280333043,0,0,0.817242118000649
S05,simple,1,near,1,2,34.85941610767168,1,1,0.75499385799958
S05,simple,1,near,1,3,30.33874280333043,0,2,0.712631017000604
S05,simple,1,near,1,4,34.85941610767168,0,0,0.735043585000312
S05,simple,1,near,1,5,37.36640980909162,0,0,0.786054172000149
S05,simple,1,near,1,6,40.05369962905618,0,0,0.814267280999047
S05,simple,1,near,1,7,42.934251970451015,0,0,0.738381851999293
S05,simple,1,near,1,8,46.02196574433174,0,0,0.961674543999834
S05,simple,1,near,1,9,49.33173943335841,0,0,0.848725706999176
S05,simple,1,near,1,10,52.87954297824629,0,0,1.14378149600088
S05,simple,1,near,1,11,56.682494834093774,0,0,1.10429100000147
S05,simple,1,near,1,12,60.75894456838941,0,0,1.12204941100026
S05,simple,1,near,1,13,65.12856139924486,0,0,0.906076625999049
S05,simple,1,near,1,14,69.81242910104828,0,0,2.64867608500026
S05,simple,1,near,1,15,74.83314773547879,1,3,1.1340239759993
S05,simple,1,near,1,16,69.81242910104828,0,4,1.07043980199887
S05,simple,1,near,1,17,74.83314773547879,0,0,1.02373570399868
S05,simple,1,near,1,18,80.21494269873368,0,0,0.976136313000097
S05,simple,1,near,1,19,85.98378161113389,0,0,1.4097814680008
S05,simple,1,near,1,20,92.16749961310897,0,0,2.06444489400019
S05,simple,1,near,1,21,98.79593367213035,0,0,1.39714874400124
S05,simple,1,near,1,22,105.90106654862237,0,0,1.15620038699853
S05,simple,1,near,1,23,113.51718111551617,1,5,1.27951457000017
S05,simple,1,near,1,24,105.90106654862237,1,0,1.39050857199982
S05,simple,1,near,1,25,98.79593367213035,0,6,1.18725403099961
S05,simple,1,near,1,26,105.90106654862237,0,0,0.98482681600035
S05,simple,1,near,1,27,113.51718111551617,0,0,1.1640110139997
S05,simple,1,near,1,28,121.68102577603862,1,7,1.11349116600104
S05,simple,1,near,1,29,113.51718111551617,1,0,0.971175230000881
S05,simple,1,near,1,30,105.90106654862237,1,0,0.772352369998771
S05,simple,1,near,1,31,98.79593367213035,1,0,0.836811458999364
S05,simple,1,near,1,32,92.16749961310897,1,0,1.14171620500019
S05,simple,1,near,1,33,85.98378161113389,1,0,0.892747997999322
S05,simple,1,near,1,34,80.21494269873368,1,0,1.1716113120001
S05,simple,1,near,1,35,74.83314773547879,0,8,1.20865860699996
S05,simple,1,near,1,36,80.21494269873368,1,9,0.909089976999894
S05,simple,1,near,1,37,74.83314773547879,1,0,0.932742921999306
S05,simple,1,near,1,38,69.81242910104828,1,0,1.54993095499958
S05,simple,1,near,1,39,65.12856139924486,1,0,1.60325041500073
S05,simple,1,near,1,40,60.75894456838941,0,10,1.56424006700036
S05,simple,1,near,1,41,65.12856139924486,0,0,1.03073172199947
S05,simple,1,near,1,42,69.81242910104828,0,0,0.985062447000018
S05,simple,1,near,1,43,74.83314773547879,0,0,0.931014026000412
S05,simple,1,near,1,44,80.21494269873368,0,0,0.80941604399959
S05,simple,1,near,1,45,85.98378161113389,0,0,0.932514992999131
S05,simple,1,near,1,46,92.16749961310897,0,0,1.15502825500153
S05,simple,1,near,1,47,98.79593367213035,0,0,0.978503053000168
S05,simple,1,near,1,48,105.90106654862237,0,0,1.04758338200008
S05,simple,1,near,1,49,113.51718111551617,0,0,1.02011523599867
S05,simple,1,near,1,50,121.68102577603862,1,11,0.95472850599981
S05,simple,1,near,1,51,113.51718111551617,1,0,0.691508621999674
S05,simple,1,near,1,52,105.90106654862237,1,0,1.05277759900127
S05,simple,1,near,1,53,98.79593367213035,1,0,1.16112418000012
S05,simple,1,near,1,54,92.16749961310897,1,0,1.66140669999913
S05,simple,1,near,1,55,85.98378161113389,0,12,1.58546030800062
S05,simple,2,far,1,1,280.00000000000017,1,0,1.00533704400004
S05,simple,2,far,1,2,243.68876284944497,1,0,0.794924543000889
S05,simple,2,far,1,3,212.08647549676277,1,0,0.743693779999376
S05,simple,2,far,1,4,184.58246725323292,1,0,0.704794135001066
S05,simple,2,far,1,5,160.64526103085177,1,0,0.735583776000567
S05,simple,2,far,1,6,139.81230327941006,1,0,0.67868043299859
S05,simple,2,far,1,7,121.68102577603862,1,0,0.988552589000392
S05,simple,2,far,1,8,105.90106654862237,1,0,0.722041275001175
S05,simple,2,far,1,9,92.16749961310987,0,1,1.08157175800079
S05,simple,2,far,1,10,105.90106654862237,1,2,0.690536121999685
S05,simple,2,far,1,11,92.16749961310987,1,0,0.877476178000506
S05,simple,2,far,1,12,85.98378161113389,1,0,0.774575598999945
S05,simple,2,far,1,13,80.21494269873368,0,3,0.796932375000324
S05,simple,2,far,1,14,85.98378161113389,0,0,0.772924148001039
S05,simple,2,far,1,15,92.16749961310987,1,4,0.956692541998564
S05,simple,2,far,1,16,85.98378161113389,1,0,1.39581634199931
S05,simple,2,far,1,17,80.21494269873368,0,5,0.922598053999536
S05,simple,2,far,1,18,85.98378161113389,0,0,0.885738245000539
S05,simple,2,far,1,19,92.16749961310987,1,6,1.25292923599955
S05,simple,2,far,1,20,85.98378161113389,1,0,0.871996662999663
S05,simple,2,far,1,21,80.21494269873368,0,7,0.963475111999287
S05,simple,2,far,1,22,85.98378161113389,0,0,1.07855214600022
S05,simple,2,far,1,23,92.16749961310987,1,8,2.10604955999952
S05,simple,2,far,1,24,85.98378161113389,1,0,2.77411090399983
S05,simple,2,far,1,25,80.21494269873368,0,9,0.785775946000285
S05,simple,2,far,1,26,85.98378161113389,0,0,1.6539451440003199
S05,simple,2,far,1,27,92.16749961310987,0,0,1.86164964999989
S05,simple,2,far,1,28,98.79593367213131,1,10,1.4071881359996
S05,simple,2,far,1,29,92.16749961310987,1,0,1.49664887399922
S05,simple,2,far,1,30,85.98378161113389,1,0,1.61116523199962
S05,simple,2,far,1,31,80.21494269873368,1,0,1.28388108500076
S05,simple,2,far,1,32,74.83314773547879,1,0,1.82741201400131
S05,simple,2,far,1,33,69.81242910104828,0,11,0.65149459299937
S05,simple,2,far,1,34,74.83314773547879,0,0,0.830011997999463
S05,simple,2,far,1,35,80.21494269873368,0,0,0.956835644999956
S05,simple,2,far,1,36,85.98378161113389,0,0,0.693670889000714
S05,simple,2,far,1,37,92.16749961310987,1,12,1.0307726230003
S05,simple,3,far,1,1,280.00000000000017,1,0,0.751809516999856
S05,simple,3,far,1,2,243.68876284944497,1,0,0.774615988000733
S05,simple,3,far,1,3,212.08647549676277,1,0,0.73224349100019
S05,simple,3,far,1,4,184.58246725323292,1,0,0.736858231999577
S05,simple,3,far,1,5,160.64526103085177,1,0,0.764514945001793
S05,simple,3,far,1,6,139.81230327941006,1,0,0.739578200000324
S05,simple,3,far,1,7,121.68102577603862,1,0,0.690734927000449
S05,simple,3,far,1,8,105.90106654862237,1,0,1.04723217299943
S05,simple,3,far,1,9,92.16749961310987,0,1,0.745691314999931
S05,simple,3,far,1,10,105.90106654862237,1,2,1.00703631299984
S05,simple,3,far,1,11,92.16749961310987,1,0,0.700737952998679
S05,simple,3,far,1,12,85.98378161113389,1,0,0.839776402999632
S05,simple,3,far,1,13,80.21494269873368,1,0,3.1287656079985
S05,simple,3,far,1,14,74.83314773547879,0,3,1.34280996599955
S05,simple,3,far,1,15,80.21494269873368,1,4,1.01152164899941
S05,simple,3,far,1,16,74.83314773547879,1,0,1.90673809399959
S05,simple,3,far,1,17,69.81242910104828,0,5,2.15896558500026
S05,simple,3,far,1,18,74.83314773547879,1,6,1.86173022299954
S05,simple,3,far,1,19,69.81242910104828,0,7,0.957018499000696
S05,simple,3,far,1,20,74.83314773547879,1,8,1.1659094759998
S05,simple,3,far,1,21,69.81242910104828,0,9,1.1649255049997
S05,simple,3,far,1,22,74.83314773547879,1,10,1.36549847099923
S05,simple,3,far,1,23,69.81242910104828,0,11,0.904345412998737
S05,simple,3,far,1,24,74.83314773547879,0,0,1.9950945569999
S05,simple,3,far,1,25,80.21494269873368,1,12,1.03026519100058
S05,simple,4,near,1,1,30.33874280333043,0,0,0.912426769000376
S05,simple,4,near,1,2,34.85941610767168,0,0,0.994400937999671
S05,simple,4,near,1,3,40.053699629056595,0,0,1.33567536300143
S05,simple,4,near,1,4,46.02196574433174,0,0,2.56198942599985
S05,simple,4,near,1,5,52.87954297824629,1,1,1.06540754499838
S05,simple,4,near,1,6,46.02196574433174,0,2,2.12277665500005
S05,simple,4,near,1,7,52.87954297824629,0,0,1.50061703599931
S05,simple,4,near,1,8,56.682494834093774,1,3,0.846757585999512
S05,simple,4,near,1,9,52.87954297824629,1,0,1.25340158399922
S05,simple,4,near,1,10,49.33173943335841,1,0,1.70150128000023
S05,simple,4,near,1,11,46.02196574433174,1,0,1.10425387400028
S05,simple,4,near,1,12,42.934251970451015,1,0,1.75632638699972
S05,simple,4,near,1,13,40.053699629056595,1,0,1.71802965499955
S05,simple,4,near,1,14,37.36640980909162,1,0,2.05929415100036
S05,simple,4,near,1,15,34.85941610767168,0,4,1.10789693300103
S05,simple,4,near,1,16,37.36640980909162,0,0,1.03582047300006
S05,simple,4,near,1,17,40.053699629056595,0,0,1.18442278600014
S05,simple,4,near,1,18,42.934251970451015,0,0,0.773979329000213
S05,simple,4,near,1,19,46.02196574433174,0,0,1.02372809400003
S05,simple,4,near,1,20,49.33173943335841,0,0,0.994310093999957
S05,simple,4,near,1,21,52.87954297824629,0,0,1.12735086799876
S05,simple,4,near,1,22,56.682494834093774,1,5,1.27222558299945
S05,simple,4,near,1,23,52.87954297824629,1,0,1.78899991700018
S05,simple,4,near,1,24,49.33173943335841,1,0,1.14729781300048
S05,simple,4,near,1,25,46.02196574433174,0,6,1.22769659199912
S05,simple,4,near,1,26,49.33173943335841,1,7,0.815498862999448
S05,simple,4,near,1,27,46.02196574433174,0,8,0.851805909998802
S05,simple,4,near,1,28,49.33173943335841,1,9,0.857797016999029
S05,simple,4,near,1,29,46.02196574433174,1,0,1.82077057900096
S05,simple,4,near,1,30,42.934251970451015,1,0,1.71363407299941
S05,simple,4,near,1,31,40.053699629056595,1,0,1.78865160599889
S05,simple,4,near,1,32,37.36640980909162,0,10,1.13842101800037
S05,simple,4,near,1,33,40.053699629056595,0,0,1.08738224300032
S05,simple,4,near,1,34,42.934251970451015,1,11,1.19440671899974
S05,simple,4,near,1,35,40.053699629056595,1,0,1.99158138299936
S05,simple,4,near,1,36,37.36640980909162,0,12,0.957698424001137
S06,simple,1,far,1,1,280.00000000000017,1,0,0.94657012099924
S06,simple,1,far,1,2,243.68876284944497,1,0,0.881124667001131
S06,simple,1,far,1,3,212.08647549676277,1,0,1.22066767400247
S06,simple,1,far,1,4,184.58246725323292,1,0,1.16036751300271
S06,simple,1,far,1,5,160.64526103085177,1,0,1.2150282420007
S06,simple,1,far,1,6,139.81230327941006,1,0,1.33860399400146
S06,simple,1,far,1,7,121.68102577603862,0,1,1.02212961600162
S06,simple,1,far,1,8,139.81230327941006,0,0,1.20276676499998
S06,simple,1,far,1,9,160.64526103085177,0,0,1.22178492600142
S06,simple,1,far,1,10,184.58246725323292,1,2,1.1176730469997
S06,simple,1,far,1,11,160.64526103085177,1,0,1.22260087500035
S06,simple,1,far,1,12,149.86722108468442,0,3,1.11905251400094
S06,simple,1,far,1,13,160.64526103085177,1,4,1.14699757099879
S06,simple,1,far,1,14,149.86722108468442,1,0,1.10723096599759
S06,simple,1,far,1,15,139.81230327941006,1,0,1.35835102599958
S06,simple,1,far,1,16,130.43199177789637,0,5,1.22465479200036
S06,simple,1,far,1,17,139.81230327941006,1,6,1.63254278800014
S06,simple,1,far,1,18,130.43199177789637,0,7,1.37102974699883
S06,simple,1,far,1,19,139.81230327941006,1,8,1.62593488600032
S06,simple,1,far,1,20,130.43199177789637,0,9,1.33045409400074
S06,simple,1,far,1,21,139.81230327941006,0,0,1.31256674700126
S06,simple,1,far,1,22,149.86722108468442,1,10,1.25828421400001
S06,simple,1,far,1,23,139.81230327941006,1,0,1.11846249500013
S06,simple,1,far,1,24,130.43199177789637,1,0,1.14569379900058
S06,simple,1,far,1,25,121.68102577603862,0,11,1.13559923899811
S06,simple,1,far,1,26,130.43199177789637,0,0,1.3384985019984
S06,simple,1,far,1,27,139.81230327941006,1,12,1.4143050820021
S06,simple,2,near,1,1,30.33874280333043,0,0,1.16579264199754
S06,simple,2,near,1,2,34.85941610767168,0,0,0.892377992000547
S06,simple,2,near,1,3,40.053699629056595,0,0,1.08176315300079
S06,simple,2,near,1,4,46.02196574433174,0,0,1.30368515200098
S06,simple,2,near,1,5,52.87954297824629,0,0,1.37893423200148
S06,simple,2,near,1,6,60.758944568390056,0,0,0.905529486000887
S06,simple,2,near,1,7,69.81242910104828,0,0,1.07285125199996
S06,simple,2,near,1,8,80.21494269873368,0,0,1.00462727600097
S06,simple,2,near,1,9,92.16749961310987,0,0,1.27998026899877
S06,simple,2,near,1,10,105.90106654862237,0,0,1.39667094299875
S06,simple,2,near,1,11,121.68102577603862,1,1,0.962018014997739
S06,simple,2,near,1,12,105.90106654862237,1,0,0.92712855499849
S06,simple,2,near,1,13,92.16749961310987,0,2,1.06715456700113
S06,simple,2,near,1,14,105.90106654862237,1,3,0.94427079900197
S06,simple,2,near,1,15,98.79593367213035,1,0,1.24916766699971
S06,simple,2,near,1,16,92.16749961310987,1,0,1.40168960400115
S06,simple,2,near,1,17,85.98378161113389,0,4,1.16843518899987
S06,simple,2,near,1,18,92.16749961310987,0,0,1.28492635300063
S06,simple,2,near,1,19,98.79593367213035,1,5,1.05753685600212
S06,simple,2,near,1,20,92.16749961310987,1,0,1.32502023900088
S06,simple,2,near,1,21,85.98378161113389,1,0,1.1564916440002
S06,simple,2,near,1,22,80.21494269873368,1,0,1.29116819200135
S06,simple,2,near,1,23,74.83314773547879,0,6,0.983396163999714
S06,simple,2,near,1,24,80.21494269873368,1,7,1.42153314099778
S06,simple,2,near,1,25,74.83314773547879,0,8,1.03461050300029
S06,simple,2,near,1,26,80.21494269873368,0,0,1.25864989199908
S06,simple,2,near,1,27,85.98378161113389,0,0,1.09114733300157
S06,simple,2,near,1,28,92.16749961310987,1,9,1.20202052799868
S06,simple,2,near,1,29,85.98378161113389,0,10,1.38808020999932
S06,simple,2,near,1,30,92.16749961310987,0,0,1.43068538599982
S06,simple,2,near,1,31,98.79593367213035,1,11,1.10613793100129
S06,simple,2,near,1,32,92.16749961310987,0,12,1.43938154100033
S06,simple,3,near,1,1,30.33874280333043,0,0,1.01858600099877
S06,simple,3,near,1,2,34.85941610767168,0,0,0.85050121400127
S06,simple,3,near,1,3,40.053699629056595,0,0,1.05935357999988
S06,simple,3,near,1,4,46.02196574433174,0,0,1.30847771499975
S06,simple,3,near,1,5,52.87954297824629,0,0,1.16569155999969
S06,simple,3,near,1,6,60.758944568390056,0,0,0.890107535000425
S06,simple,3,near,1,7,69.81242910104828,0,0,1.16612380900187
S06,simple,3,near,1,8,80.21494269873368,0,0,1.10249025200028
S06,simple,3,near,1,9,92.16749961310987,0,0,1.19231803000002
S06,simple,3,near,1,10,105.90106654862237,1,1,1.64916585399988
S06,simple,3,near,1,11,92.16749961310987,1,0,1.47453624199989
S06,simple,3,near,1,12,80.21494269873368,0,2,1.00877776099878
S06,simple,3,near,1,13,92.16749961310987,1,3,1.19667815499997
S06,simple,3,near,1,14,85.98378161113389,1,0,1.2618018969988
S06,simple,3,near,1,15,80.21494269873368,0,4,1.13492071499786
S06,simple,3,near,1,16,85.98378161113389,1,5,1.15669877400069
S06,simple,3,near,1,17,80.21494269873368,0,6,1.09848815000078
S06,simple,3,near,1,18,85.98378161113389,0,0,1.18087469799866
S06,simple,3,near,1,19,92.16749961310987,0,0,1.31527546500001
S06,simple,3,near,1,20,98.79593367213035,1,7,1.42689684300058
S06,simple,3,near,1,21,92.16749961310987,0,8,1.52426477799963
S06,simple,3,near,1,22,98.79593367213035,1,9,1.40970144099992
S06,simple,3,near,1,23,92.16749961310987,0,10,1.42841430100088
S06,simple,3,near,1,24,98.79593367213035,0,0,1.41773328800264
S06,simple,3,near,1,25,105.90106654862237,1,11,1.02091876199847
S06,simple,3,near,1,26,98.79593367213035,0,12,1.91488852100156
S06,simple,4,far,1,1,280.00000000000017,1,0,1.08124973099984
S06,simple,4,far,1,2,243.68876284944497,1,0,1.00231092200193
S06,simple,4,far,1,3,212.08647549676277,1,0,0.97949310200056094
S06,simple,4,far,1,4,184.58246725323292,1,0,1.02536837700245
S06,simple,4,far,1,5,160.64526103085177,1,0,1.0635234859983
S06,simple,4,far,1,6,139.81230327941006,1,0,1.10417054400023
S06,simple,4,far,1,7,121.68102577603862,1,0,1.42272865699852
S06,simple,4,far,1,8,105.90106654862237,0,1,1.28024528999958
S06,simple,4,far,1,9,121.68102577603862,0,0,1.34052661299938
S06,simple,4,far,1,10,139.81230327941006,1,2,1.50055622900254
S06,simple,4,far,1,11,121.68102577603862,0,3,1.38717146699855
S06,simple,4,far,1,12,130.43199177789637,0,0,1.34827376400062
S06,simple,4,far,1,13,139.81230327941006,1,4,1.23554303399942
S06,simple,4,far,1,14,130.43199177789637,1,0,1.45333880699764
S06,simple,4,far,1,15,121.68102577603862,1,0,1.79946512400056
S06,simple,4,far,1,16,113.51718111551617,1,0,1.37351692700031
S06,simple,4,far,1,17,105.90106654862237,1,0,1.26234001400007
S06,simple,4,far,1,18,98.79593367213131,0,5,1.07068218299901
S06,simple,4,far,1,19,105.90106654862237,0,0,1.28130754799713
S06,simple,4,far,1,20,113.51718111551617,1,6,1.16207849299826
S06,simple,4,far,1,21,105.90106654862237,0,7,1.28734881499986
S06,simple,4,far,1,22,113.51718111551617,1,8,1.25429204100146
S06,simple,4,far,1,23,105.90106654862237,1,0,1.66595530199993
S06,simple,4,far,1,24,98.79593367213131,1,0,1.5558521219973
S06,simple,4,far,1,25,92.16749961310987,0,9,1.23991240000032
S06,simple,4,far,1,26,98.79593367213131,1,10,0.916119661000266
S06,simple,4,far,1,27,92.16749961310987,1,0,1.53941088300053
S06,simple,4,far,1,28,85.98378161113389,0,11,1.1408785700005
S06,simple,4,far,1,29,92.16749961310987,1,12,1.43526759000088
S07,simple,1,far,1,1,280.00000000000017,1,0,0.976624330996856
S07,simple,1,far,1,2,243.68876284944497,1,0,0.872748429999774
S07,simple,1,far,1,3,212.08647549676277,1,0,0.963937235999765
S07,simple,1,far,1,4,184.58246725323292,1,0,1.16164989699973
S07,simple,1,far,1,5,160.64526103085177,1,0,1.03783407599985
S07,simple,1,far,1,6,139.81230327941006,1,0,1.7881205119993
S07,simple,1,far,1,7,121.68102577603862,0,1,1.19427053000254
S07,simple,1,far,1,8,139.81230327941006,0,0,1.40915091499846
S07,simple,1,far,1,9,160.64526103085177,0,0,3.4325170359989
S07,simple,1,far,1,10,184.58246725323292,1,2,0.928284303998225
S07,simple,1,far,1,11,160.64526103085177,1,0,0.990280285997869
S07,simple,1,far,1,12,149.86722108468442,1,0,2.91745840500153
S07,simple,1,far,1,13,139.81230327941006,1,0,1.29396949500006
S07,simple,1,far,1,14,130.43199177789637,0,3,0.918817647998367
S07,simple,1,far,1,15,139.81230327941006,0,0,0.920980508999492
S07,simple,1,far,1,16,149.86722108468442,0,0,2.15948946799836
S07,simple,1,far,1,17,160.64526103085177,1,4,1.10190606600008
S07,simple,1,far,1,18,149.86722108468442,0,5,1.84193547099858
S07,simple,1,far,1,19,160.64526103085177,0,0,1.76484582099874
S07,simple,1,far,1,20,172.19842808113626,1,6,1.6723493319987
S07,simple,1,far,1,21,160.64526103085177,1,0,1.6901200909997
S07,simple,1,far,1,22,149.86722108468442,1,0,1.08598050899673
S07,simple,1,far,1,23,139.81230327941006,0,7,2.63925514199946
S07,simple,1,far,1,24,149.86722108468442,0,0,2.11641699900065
S07,simple,1,far,1,25,160.64526103085177,0,0,1.30371717899834
S07,simple,1,far,1,26,172.19842808113626,0,0,3.36852951800029
S07,simple,1,far,1,27,184.58246725323292,1,8,0.925121093998314
S07,simple,1,far,1,28,172.19842808113626,1,0,1.86583739199705
S07,simple,1,far,1,29,160.64526103085177,1,0,0.746941105997394
S07,simple,1,far,1,30,149.86722108468442,0,9,1.18054836599913
S07,simple,1,far,1,31,160.64526103085177,0,0,1.05488611100009
S07,simple,1,far,1,32,172.19842808113626,0,0,1.10582148700269
S07,simple,1,far,1,33,184.58246725323292,0,0,1.33775885399882
S07,simple,1,far,1,34,197.85713259378545,0,0,4.56112484899859
S07,simple,1,far,1,35,212.08647549676277,0,0,2.02280179199806
S07,simple,1,far,1,36,227.3391537569029,0,0,1.83615771400218
S07,simple,1,far,1,37,243.68876284944497,1,10,0.921819623999909
S07,simple,1,far,1,38,227.3391537569029,1,0,0.776089166996826
S07,simple,1,far,1,39,212.08647549676277,1,0,1.07252341999992
S07,simple,1,far,1,40,197.85713259378545,1,0,0.767418973999156
S07,simple,1,far,1,41,184.58246725323292,0,11,2.18739866000033
S07,simple,1,far,1,42,197.85713259378545,0,0,1.43050510200192
S07,simple,1,far,1,43,212.08647549676277,0,0,1.15990881999824
S07,simple,1,far,1,44,227.3391537569029,1,12,2.2252876829989
S07,simple,2,near,1,1,30.33874280333043,0,0,0.941127924998
S07,simple,2,near,1,2,34.85941610767168,0,0,0.879566251001961
S07,simple,2,near,1,3,40.053699629056595,0,0,0.51320680400022
S07,simple,2,near,1,4,46.02196574433174,0,0,0.587581964999117
S07,simple,2,near,1,5,52.87954297824629,0,0,0.664619561997824
S07,simple,2,near,1,6,60.758944568390056,0,0,1.23502106299929
S07,simple,2,near,1,7,69.81242910104828,0,0,0.96859584199774
S07,simple,2,near,1,8,80.21494269873368,0,0,0.799740919999749
S07,simple,2,near,1,9,92.16749961310987,0,0,1.26891122099914
S07,simple,2,near,1,10,105.90106654862237,0,0,1.35112570199999
S07,simple,2,near,1,11,121.68102577603862,0,0,5.29184910000185
S07,simple,2,near,1,12,139.81230327940855,1,1,0.886260893003055
S07,simple,2,near,1,13,121.68102577603862,1,0,1.17497059300149
S07,simple,2,near,1,14,105.90106654862237,0,2,1.24973565699838
S07,simple,2,near,1,15,121.68102577603862,0,0,1.12831038500008
S07,simple,2,near,1,16,130.43199177789637,0,0,0.748283739001636
S07,simple,2,near,1,17,139.81230327940855,0,0,1.0143696060004
S07,simple,2,near,1,18,149.86722108468282,0,0,1.78641064499971
S07,simple,2,near,1,19,160.64526103085177,0,0,4.1467278880009
S07,simple,2,near,1,20,172.19842808113626,0,0,1.41503111699785
S07,simple,2,near,1,21,184.58246725323292,1,3,1.84097446099986
S07,simple,2,near,1,22,172.19842808113626,1,0,1.3415824329968
S07,simple,2,near,1,23,160.64526103085177,1,0,2.17003694999948
S07,simple,2,near,1,24,149.86722108468282,1,0,2.42027394800243
S07,simple,2,near,1,25,139.81230327940855,0,4,0.996248094001203
S07,simple,2,near,1,26,149.86722108468282,0,0,1.74231334000069
S07,simple,2,near,1,27,160.64526103085177,0,0,2.42744694299836
S07,simple,2,near,1,28,172.19842808113626,1,5,1.03480715700061
S07,simple,2,near,1,29,160.64526103085177,1,0,1.59947717799878
S07,simple,2,near,1,30,149.86722108468282,0,6,1.30460155299807
S07,simple,2,near,1,31,160.64526103085177,0,0,0.987386993998371
S07,simple,2,near,1,32,172.19842808113626,0,0,0.83936599399749
S07,simple,2,near,1,33,184.58246725323292,0,0,2.89296131000083
S07,simple,2,near,1,34,197.85713259378545,0,0,1.3924859760009
S07,simple,2,near,1,35,212.0864754967607,0,0,1.43168089100072
S07,simple,2,near,1,36,227.3391537569029,1,7,1.43547884500003
S07,simple,2,near,1,37,212.0864754967607,1,0,2.24137353199694
S07,simple,2,near,1,38,197.85713259378545,0,8,2.55972887199823
S07,simple,2,near,1,39,212.0864754967607,0,0,2.18771336600184
S07,simple,2,near,1,40,227.3391537569029,0,0,1.85592606299906
S07,simple,2,near,1,41,243.68876284944497,1,9,1.0274971789986
S07,simple,2,near,1,42,227.3391537569029,1,0,1.01013151200095
S07,simple,2,near,1,43,212.0864754967607,1,0,3.92731055699915
S07,simple,2,near,1,44,197.85713259378545,1,0,1.03220705700005
S07,simple,2,near,1,45,184.58246725323292,0,10,1.92032865900183
S07,simple,2,near,1,46,197.85713259378545,0,0,2.17301147299804
S07,simple,2,near,1,47,212.0864754967607,0,0,1.26008549800099
S07,simple,2,near,1,48,227.3391537569029,1,11,0.928863539000304
S07,simple,2,near,1,49,212.0864754967607,1,0,0.997311703999003
S07,simple,2,near,1,50,197.85713259378545,0,12,2.06715365800119
S07,simple,3,near,1,1,30.33874280333043,0,0,0.853121404001286
S07,simple,3,near,1,2,34.85941610767168,0,0,0.769298881001305
S07,simple,3,near,1,3,40.053699629056595,0,0,0.723540539998794
S07,simple,3,near,1,4,46.02196574433174,0,0,0.795686059002037
S07,simple,3,near,1,5,52.87954297824629,0,0,0.765921133999655
S07,simple,3,near,1,6,60.758944568390056,0,0,0.612538051998854
S07,simple,3,near,1,7,69.81242910104828,0,0,0.850835626999469
S07,simple,3,near,1,8,80.21494269873368,0,0,0.9319285269994
S07,simple,3,near,1,9,92.16749961310987,0,0,1.14296663400091
S07,simple,3,near,1,10,105.90106654862237,0,0,3.21692268500192
S07,simple,3,near,1,11,121.68102577603862,0,0,2.39608338499966
S07,simple,3,near,1,12,139.81230327940855,1,1,1.48088191100032
S07,simple,3,near,1,13,121.68102577603862,1,0,2.18178689400156
S07,simple,3,near,1,14,105.90106654862237,0,2,1.32800016300098
S07,simple,3,near,1,15,121.68102577603862,0,0,1.43551588399714
S07,simple,3,near,1,16,130.43199177789637,0,0,1.82937447199947
S07,simple,3,near,1,17,139.81230327940855,0,0,2.37857889799852
S07,simple,3,near,1,18,149.86722108468282,0,0,1.67483095599891
S07,simple,3,near,1,19,160.64526103085177,0,0,2.03670990799947
S07,simple,3,near,1,20,172.19842808113626,1,3,0.928360873000202
S07,simple,3,near,1,21,160.64526103085177,0,4,3.1099004860007
S07,simple,3,near,1,22,172.19842808113626,0,0,1.75713489999907
S07,simple,3,near,1,23,184.58246725323292,0,0,1.79292340199754
S07,simple,3,near,1,24,197.85713259378545,0,0,3.82287660300062
S07,simple,3,near,1,25,212.0864754967607,1,5,1.83079856499899
S07,simple,3,near,1,26,197.85713259378545,1,0,1.46566335600073
S07,simple,3,near,1,27,184.58246725323292,1,0,2.68985477399838
S07,simple,3,near,1,28,172.19842808113626,1,0,1.08609724599955
S07,simple,3,near,1,29,160.64526103085177,0,6,1.69281551900349
S07,simple,3,near,1,30,172.19842808113626,0,0,1.61928760199953
S07,simple,3,near,1,31,184.58246725323292,0,0,1.19244630100002
S07,simple,3,near,1,32,197.85713259378545,0,0,2.34935024099832
S07,simple,3,near,1,33,212.0864754967607,0,0,2.04301322299943
S07,simple,3,near,1,34,227.3391537569029,0,0,1.98984799299797
S07,simple,3,near,1,35,243.68876284944497,0,0,2.56777359999978
S07,simple,3,near,1,36,261.21419103456964,0,0,1.52971835199787
S07,simple,3,near,1,37,280.00000000000017,1,7,2.03759600400008
S07,simple,3,near,1,38,261.21419103456964,1,0,1.05778052300229
S07,simple,3,near,1,39,243.68876284944497,1,0,1.31992317700133
S07,simple,3,near,1,40,227.3391537569029,1,0,2.18969422699956
S07,simple,3,near,1,41,212.0864754967607,0,8,1.38558036900213
S07,simple,3,near,1,42,227.3391537569029,0,0,2.48239595300038
S07,simple,3,near,1,43,243.68876284944497,0,0,1.87117266200221
S07,simple,3,near,1,44,261.21419103456964,1,9,2.38233072600269
S07,simple,3,near,1,45,243.68876284944497,1,0,1.26376961699862
S07,simple,3,near,1,46,227.3391537569029,1,0,1.53454176100058
S07,simple,3,near,1,47,212.0864754967607,1,0,1.89756404000218
S07,simple,3,near,1,48,197.85713259378545,1,0,1.98997073999999
S07,simple,3,near,1,49,184.58246725323292,1,0,1.63361069600069
S07,simple,3,near,1,50,172.19842808113626,1,0,2.57690930900208
S07,simple,3,near,1,51,160.64526103085177,0,10,2.30882003599982
S07,simple,3,near,1,52,172.19842808113626,0,0,1.48587009400217
S07,simple,3,near,1,53,184.58246725323292,0,0,1.17635698999948
S07,simple,3,near,1,54,197.85713259378545,0,0,1.70606993799811
S07,simple,3,near,1,55,212.0864754967607,0,0,3.55838417999985
S07,simple,3,near,1,56,227.3391537569029,0,0,2.95759262900174
S07,simple,3,near,1,57,243.68876284944497,0,0,2.67925439399914
S07,simple,3,near,1,58,261.21419103456964,0,0,1.94972746300118
S07,simple,3,near,1,59,280.00000000000017,1,11,3.45828324299873
S07,simple,3,near,1,60,261.21419103456964,1,0,3.34811710600115
S07,simple,3,near,1,61,243.68876284944497,1,0,3.5087758059999
S07,simple,3,near,1,62,227.3391537569029,1,0,1.57946452200122
S07,simple,3,near,1,63,212.0864754967607,0,12,2.70810899199932
S07,simple,4,far,1,1,280.00000000000017,1,0,2.25587981599892
S07,simple,4,far,1,2,243.68876284944497,1,0,1.2644948240013
S07,simple,4,far,1,3,212.08647549676277,1,0,1.32214801499867
S07,simple,4,far,1,4,184.58246725323292,1,0,1.02387074199942
S07,simple,4,far,1,5,160.64526103085177,0,1,1.62602179000169
S07,simple,4,far,1,6,184.58246725323292,1,2,4.34272209100163
S07,simple,4,far,1,7,160.64526103085177,0,3,0.812873393999325
S07,simple,4,far,1,8,172.19842808113626,0,0,1.12746831999902
S07,simple,4,far,1,9,184.58246725323292,0,0,1.98866598600216
S07,simple,4,far,1,10,197.85713259378545,1,4,2.8713439940002
S07,simple,4,far,1,11,184.58246725323292,1,0,1.36419209000087
S07,simple,4,far,1,12,172.19842808113626,0,5,2.45693416399808
S07,simple,4,far,1,13,184.58246725323292,0,0,1.68637653699989
S07,simple,4,far,1,14,197.85713259378545,0,0,3.166292574002
S07,simple,4,far,1,15,212.08647549676277,0,0,2.7648195010006
S07,simple,4,far,1,16,227.3391537569029,1,6,0.88666859300065
S07,simple,4,far,1,17,212.08647549676277,1,0,1.63189991200124
S07,simple,4,far,1,18,197.85713259378545,1,0,1.39709136999954
S07,simple,4,far,1,19,184.58246725323292,1,0,1.34178650100148
S07,simple,4,far,1,20,172.19842808113626,0,7,3.54775281099865
S07,simple,4,far,1,21,184.58246725323292,0,0,2.0554969879995
S07,simple,4,far,1,22,197.85713259378545,0,0,2.62963875200148
S07,simple,4,far,1,23,212.08647549676277,0,0,3.01065252199987
S07,simple,4,far,1,24,227.3391537569029,1,8,1.00233396900148
S07,simple,4,far,1,25,212.08647549676277,1,0,0.946232335998502
S07,simple,4,far,1,26,197.85713259378545,1,0,2.2619305929984
S07,simple,4,far,1,27,184.58246725323292,1,0,3.14792488400053
S07,simple,4,far,1,28,172.19842808113626,0,9,1.0683196309983
S07,simple,4,far,1,29,184.58246725323292,0,0,1.01981062100094
S07,simple,4,far,1,30,197.85713259378545,0,0,1.06217465200098
S07,simple,4,far,1,31,212.08647549676277,0,0,1.21277062499939
S07,simple,4,far,1,32,227.3391537569029,0,0,1.20220266999968
S07,simple,4,far,1,33,243.68876284944497,0,0,5.23665340099978
S07,simple,4,far,1,34,261.21419103456964,1,10,2.04472174400144
S07,simple,4,far,1,35,243.68876284944497,1,0,6.64634825899702
S07,simple,4,far,1,36,227.3391537569029,0,11,1.5522709470024
S07,simple,4,far,1,37,243.68876284944497,0,0,1.43833408400315
S07,simple,4,far,1,38,261.21419103456964,1,12,1.18963011800224
S08,simple,1,far,1,1,280.00000000000017,1,0,0.669993032000093
S08,simple,1,far,1,2,243.68876284944497,1,0,0.520471047000228
S08,simple,1,far,1,3,212.08647549676277,0,1,1.04231882500017
S08,simple,1,far,1,4,243.68876284944497,1,2,0.487186291999933
S08,simple,1,far,1,5,212.08647549676277,1,0,0.514232867999908
S08,simple,1,far,1,6,197.85713259378545,1,0,0.619774318000054
S08,simple,1,far,1,7,184.58246725323292,1,0,0.524138278999999
S08,simple,1,far,1,8,172.19842808113626,1,0,0.641581383999892
S08,simple,1,far,1,9,160.64526103085177,1,0,0.45729653799981
S08,simple,1,far,1,10,149.86722108468442,1,0,0.674563633000162
S08,simple,1,far,1,11,139.81230327941006,1,0,0.718300628000179
S08,simple,1,far,1,12,130.43199177789637,0,3,0.927229311999781
S08,simple,1,far,1,13,139.81230327941006,0,0,0.808501274999799
S08,simple,1,far,1,14,149.86722108468442,1,4,0.780069231000198
S08,simple,1,far,1,15,139.81230327941006,0,5,0.696601564999582
S08,simple,1,far,1,16,149.86722108468442,0,0,0.611705604000235
S08,simple,1,far,1,17,160.64526103085177,1,6,0.705863522000072
S08,simple,1,far,1,18,149.86722108468442,1,0,0.957132649999949
S08,simple,1,far,1,19,139.81230327941006,0,7,0.661535572000048
S08,simple,1,far,1,20,149.86722108468442,0,0,0.812181366999994
S08,simple,1,far,1,21,160.64526103085177,1,8,0.660617619000277
S08,simple,1,far,1,22,149.86722108468442,1,0,0.532776150000245
S08,simple,1,far,1,23,139.81230327941006,1,0,0.583987463000085
S08,simple,1,far,1,24,130.43199177789637,0,9,0.613268560000051
S08,simple,1,far,1,25,139.81230327941006,0,0,0.826415527000336
S08,simple,1,far,1,26,149.86722108468442,1,10,0.703127501999916
S08,simple,1,far,1,27,139.81230327941006,1,0,0.705615263999789
S08,simple,1,far,1,28,130.43199177789637,0,11,0.459972529999959
S08,simple,1,far,1,29,139.81230327941006,1,12,0.563192551000157
S08,simple,2,far,1,1,280.00000000000017,1,0,0.671661319000123
S08,simple,2,far,1,2,243.68876284944497,1,0,0.613966715000061
S08,simple,2,far,1,3,212.08647549676277,1,0,0.654493003000425
S08,simple,2,far,1,4,184.58246725323292,1,0,0.490209480999965
S08,simple,2,far,1,5,160.64526103085177,0,1,0.798875253000006
S08,simple,2,far,1,6,184.58246725323292,0,0,0.619363502999931
S08,simple,2,far,1,7,212.08647549676277,1,2,0.622134252000251
S08,simple,2,far,1,8,184.58246725323292,1,0,1.00088905300026
S08,simple,2,far,1,9,172.19842808113626,1,0,0.738983961000031
S08,simple,2,far,1,10,160.64526103085177,1,0,0.682017744999939
S08,simple,2,far,1,11,149.86722108468442,0,3,0.56056483600014
S08,simple,2,far,1,12,160.64526103085177,0,0,1.06480224100005
S08,simple,2,far,1,13,172.19842808113626,0,0,0.804015625999909
S08,simple,2,far,1,14,184.58246725323292,1,4,0.730953839999984
S08,simple,2,far,1,15,172.19842808113626,1,0,0.755950438000127
S08,simple,2,far,1,16,160.64526103085177,1,0,0.665153561999887
S08,simple,2,far,1,17,149.86722108468442,1,0,0.593314671999906
S08,simple,2,far,1,18,139.81230327941006,0,5,0.706050160999894
S08,simple,2,far,1,19,149.86722108468442,1,6,0.712767879999774
S08,simple,2,far,1,20,139.81230327941006,1,0,0.455376838999655
S08,simple,2,far,1,21,130.43199177789637,0,7,0.516195101999983
S08,simple,2,far,1,22,139.81230327941006,1,8,0.813696243000322
S08,simple,2,far,1,23,130.43199177789637,0,9,0.639127455000107
S08,simple,2,far,1,24,139.81230327941006,0,0,0.71205268499989
S08,simple,2,far,1,25,149.86722108468442,0,0,0.607289753000259
S08,simple,2,far,1,26,160.64526103085177,1,10,0.574371660999986
S08,simple,2,far,1,27,149.86722108468442,1,0,1.14905900000031
S08,simple,2,far,1,28,139.81230327941006,1,0,1.01293342000008
S08,simple,2,far,1,29,130.43199177789637,0,11,0.441433106000204
S08,simple,2,far,1,30,139.81230327941006,1,12,0.486178798999845
S08,simple,3,near,1,1,30.33874280333043,0,0,0.59313254000017
S08,simple,3,near,1,2,34.85941610767168,0,0,0.514736103999894
S08,simple,3,near,1,3,40.053699629056595,0,0,0.356288638000024
S08,simple,3,near,1,4,46.02196574433174,0,0,0.507555528000012
S08,simple,3,near,1,5,52.87954297824629,0,0,0.458298002999982
S08,simple,3,near,1,6,60.758944568390056,0,0,0.489550981999855
S08,simple,3,near,1,7,69.81242910104828,0,0,0.454113447000054
S08,simple,3,near,1,8,80.21494269873368,0,0,0.434502278999844
S08,simple,3,near,1,9,92.16749961310987,0,0,0.513307471999724
S08,simple,3,near,1,10,105.90106654862237,0,0,0.558707311000035
S08,simple,3,near,1,11,121.68102577603862,1,1,0.671186041000055
S08,simple,3,near,1,12,105.90106654862237,1,0,0.558823321999625
S08,simple,3,near,1,13,92.16749961310987,0,2,0.568696944999829
S08,simple,3,near,1,14,105.90106654862237,0,0,0.587248343000283
S08,simple,3,near,1,15,113.51718111551617,0,0,1.05110767899987
S08,simple,3,near,1,16,121.68102577603862,1,3,0.457077752000259
S08,simple,3,near,1,17,113.51718111551617,1,0,0.558415708999746
S08,simple,3,near,1,18,105.90106654862237,1,0,0.414387307000197
S08,simple,3,near,1,19,98.79593367213035,0,4,0.575547948999883
S08,simple,3,near,1,20,105.90106654862237,0,0,0.565619744000287
S08,simple,3,near,1,21,113.51718111551617,1,5,0.735324665999997
S08,simple,3,near,1,22,105.90106654862237,0,6,0.64447294699994
S08,simple,3,near,1,23,113.51718111551617,0,0,0.552191958000094
S08,simple,3,near,1,24,121.68102577603862,1,7,0.643789413999912
S08,simple,3,near,1,25,113.51718111551617,1,0,0.681315866000205
S08,simple,3,near,1,26,105.90106654862237,0,8,0.467569327000092
S08,simple,3,near,1,27,113.51718111551617,0,0,0.426300060999893
S08,simple,3,near,1,28,121.68102577603862,1,9,0.450948561000132
S08,simple,3,near,1,29,113.51718111551617,1,0,0.477295714999855
S08,simple,3,near,1,30,105.90106654862237,0,10,0.772413788999984
S08,simple,3,near,1,31,113.51718111551617,0,0,0.53224438999996
S08,simple,3,near,1,32,121.68102577603862,0,0,0.773951431000114
S08,simple,3,near,1,33,130.43199177789637,0,0,0.623696810000183
S08,simple,3,near,1,34,139.81230327940855,1,11,0.449381789000199
S08,simple,3,near,1,35,130.43199177789637,1,0,0.452036919999955
S08,simple,3,near,1,36,121.68102577603862,1,0,0.527210823000132
S08,simple,3,near,1,37,113.51718111551617,0,12,0.477061968999806
S08,simple,4,near,1,1,30.33874280333043,0,0,0.567618878999838
S08,simple,4,near,1,2,34.85941610767168,0,0,0.371245117999933
S08,simple,4,near,1,3,40.053699629056595,0,0,0.586556518999714
S08,simple,4,near,1,4,46.02196574433174,0,0,0.499108518999947
S08,simple,4,near,1,5,52.87954297824629,0,0,0.441001404999952
S08,simple,4,near,1,6,60.758944568390056,0,0,0.53047963400013
S08,simple,4,near,1,7,69.81242910104828,0,0,0.478063068999745
S08,simple,4,near,1,8,80.21494269873368,0,0,0.347399704000054
S08,simple,4,near,1,9,92.16749961310987,0,0,0.445081446000131
S08,simple,4,near,1,10,105.90106654862237,0,0,0.475766911999926
S08,simple,4,near,1,11,121.68102577603862,1,1,0.498502372000075
S08,simple,4,near,1,12,105.90106654862237,0,2,0.67168453800013606
S08,simple,4,near,1,13,121.68102577603862,0,0,1.00820381199992
S08,simple,4,near,1,14,130.43199177789637,1,3,0.601177680000092
S08,simple,4,near,1,15,121.68102577603862,0,4,0.634591961000297
S08,simple,4,near,1,16,130.43199177789637,1,5,0.508314516000155
S08,simple,4,near,1,17,121.68102577603862,1,0,0.775518218999878
S08,simple,4,near,1,18,113.51718111551617,0,6,0.593180945999848
S08,simple,4,near,1,19,121.68102577603862,0,0,0.704375043000255
S08,simple,4,near,1,20,130.43199177789637,1,7,0.59930954299989
S08,simple,4,near,1,21,121.68102577603862,0,8,0.639026087000275
S08,simple,4,near,1,22,130.43199177789637,1,9,0.58305237400009
S08,simple,4,near,1,23,121.68102577603862,1,0,0.521526645999984
S08,simple,4,near,1,24,113.51718111551617,0,10,0.43886232099976
S08,simple,4,near,1,25,121.68102577603862,1,11,0.49233221500026
S08,simple,4,near,1,26,113.51718111551617,1,0,0.473191037000106
S08,simple,4,near,1,27,105.90106654862237,0,12,0.54462772800025006
S09,simple,1,far,1,1,280.00000000000017,1,0,1.01393602500002
S09,simple,1,far,1,2,243.68876284944497,1,0,1.10425734199998
S09,simple,1,far,1,3,212.08647549676277,1,0,1.84329509999998
S09,simple,1,far,1,4,184.58246725323292,1,0,1.54073294999989
S09,simple,1,far,1,5,160.64526103085177,1,0,1.54016354299984
S09,simple,1,far,1,6,139.81230327941006,1,0,1.22951439000008
S09,simple,1,far,1,7,121.68102577603862,0,1,1.34574882600009
S09,simple,1,far,1,8,139.81230327941006,0,0,1.17399807900028
S09,simple,1,far,1,9,160.64526103085177,0,0,1.07111542899975
S09,simple,1,far,1,10,184.58246725323292,0,0,0.62937003099978
S09,simple,1,far,1,11,212.08647549676277,0,0,1.02887595499988
S09,simple,1,far,1,12,243.68876284944497,0,0,1.44731859500007
S09,simple,1,far,1,13,280.00000000000017,0,0,1.1411104849999
S09,simple,1,far,1,14,280.00000000000017,0,0,0.982914693000112
S09,simple,1,far,1,15,280.00000000000017,0,0,0.82875928600015
S09,simple,1,far,1,16,280.00000000000017,0,0,0.839240958000119
S09,simple,1,far,1,17,280.00000000000017,1,2,0.774705726999855
S09,simple,1,far,1,18,243.68876284944497,1,0,1.05287493300011
S09,simple,1,far,1,19,227.3391537569029,1,0,1.06747111799996
S09,simple,1,far,1,20,212.08647549676277,1,0,0.938777266000216
S09,simple,1,far,1,21,197.85713259378545,1,0,0.883814855999844
S09,simple,1,far,1,22,184.58246725323292,1,0,1.56158866999976
S09,simple,1,far,1,23,172.19842808113626,1,0,0.977676711000186
S09,simple,1,far,1,24,160.64526103085177,1,0,1.06467146299974
S09,simple,1,far,1,25,149.86722108468442,0,3,0.848739974000182
S09,simple,1,far,1,26,160.64526103085177,1,4,1.10115616800022
S09,simple,1,far,1,27,149.86722108468442,1,0,0.831363776999751
S09,simple,1,far,1,28,139.81230327941006,1,0,0.965581405999728
S09,simple,1,far,1,29,130.43199177789637,0,5,0.499680946999888
S09,simple,1,far,1,30,139.81230327941006,0,0,0.432910487999834
S09,simple,1,far,1,31,149.86722108468442,1,6,0.788166435999756
S09,simple,1,far,1,32,139.81230327941006,1,0,0.888354115999846
S09,simple,1,far,1,33,130.43199177789637,1,0,0.670480740999665
S09,simple,1,far,1,34,121.68102577603862,1,0,1.54625042099997
S09,simple,1,far,1,35,113.51718111551617,0,7,2.1305664749998
S09,simple,1,far,1,36,121.68102577603862,0,0,1.06042100200011
S09,simple,1,far,1,37,130.43199177789637,0,0,1.37884209799995
S09,simple,1,far,1,38,139.81230327941006,0,0,1.39770929800034
S09,simple,1,far,1,39,149.86722108468442,0,0,1.20725763100018
S09,simple,1,far,1,40,160.64526103085177,0,0,1.28922110700023
S09,simple,1,far,1,41,172.19842808113626,0,0,0.226649121999799
S09,simple,1,far,1,42,184.58246725323292,0,0,1.28888307299985
S09,simple,1,far,1,43,197.85713259378545,0,0,1.24075146300038
S09,simple,1,far,1,44,212.08647549676277,0,0,1.1526139180005
S09,simple,1,far,1,45,227.3391537569029,0,0,1.31537774600019
S09,simple,1,far,1,46,243.68876284944497,1,8,1.47056476399939
S09,simple,1,far,1,47,227.3391537569029,0,9,1.29146232399944
S09,simple,1,far,1,48,243.68876284944497,0,0,1.06808541499959
S09,simple,1,far,1,49,261.21419103456964,0,0,1.54155863599954
S09,simple,1,far,1,50,280.00000000000017,1,10,1.35927119200005
S09,simple,1,far,1,51,261.21419103456964,1,0,1.54312545500034
S09,simple,1,far,1,52,243.68876284944497,0,11,1.23857846700048
S09,simple,1,far,1,53,261.21419103456964,0,0,1.41728359300032
S09,simple,1,far,1,54,280.00000000000017,0,0,1.43274729099994
S09,simple,1,far,1,55,280.00000000000017,1,12,1.25326124499952
S09,simple,2,far,1,1,280.00000000000017,1,0,1.09244558299997
S09,simple,2,far,1,2,243.68876284944497,1,0,1.26828851800019
S09,simple,2,far,1,3,212.08647549676277,1,0,1.12668325699997
S09,simple,2,far,1,4,184.58246725323292,0,1,0.933098904999497
S09,simple,2,far,1,5,212.08647549676277,1,2,1.10180519400001
S09,simple,2,far,1,6,184.58246725323292,1,0,1.22909385100047
S09,simple,2,far,1,7,172.19842808113626,0,3,1.28743773299993
S09,simple,2,far,1,8,184.58246725323292,0,0,1.11753951199989
S09,simple,2,far,1,9,197.85713259378545,0,0,1.19962399799988
S09,simple,2,far,1,10,212.08647549676277,0,0,1.23520536999968
S09,simple,2,far,1,11,227.3391537569029,1,4,0.97503436199986
S09,simple,2,far,1,12,212.08647549676277,1,0,1.20247019099952
S09,simple,2,far,1,13,197.85713259378545,0,5,1.24814847900052
S09,simple,2,far,1,14,212.08647549676277,0,0,1.17230134400052
S09,simple,2,far,1,15,227.3391537569029,0,0,1.67618599300022
S09,simple,2,far,1,16,243.68876284944497,0,0,1.40734458499992
S09,simple,2,far,1,17,261.21419103456964,1,6,1.17263951700079
S09,simple,2,far,1,18,243.68876284944497,1,0,1.55601337999997
S09,simple,2,far,1,19,227.3391537569029,0,7,1.08981187900008
S09,simple,2,far,1,20,243.68876284944497,1,8,0.809634407999511
S09,simple,2,far,1,21,227.3391537569029,1,0,0.835034870000527
S09,simple,2,far,1,22,212.08647549676277,0,9,1.19679567000003
S09,simple,2,far,1,23,227.3391537569029,0,0,1.10461116700026
S09,simple,2,far,1,24,243.68876284944497,1,10,1.41588144199977
S09,simple,2,far,1,25,227.3391537569029,0,11,1.23753440600012
S09,simple,2,far,1,26,243.68876284944497,1,12,1.22605349200057
S09,simple,3,near,1,1,30.33874280333043,0,0,1.18924021200019
S09,simple,3,near,1,2,34.85941610767168,0,0,0.864751021999837
S09,simple,3,near,1,3,40.053699629056595,0,0,1.09553549100019
S09,simple,3,near,1,4,46.02196574433174,0,0,1.24141868199968
S09,simple,3,near,1,5,52.87954297824629,0,0,1.46655028700025
S09,simple,3,near,1,6,60.758944568390056,0,0,1.23807024999951
S09,simple,3,near,1,7,69.81242910104828,0,0,0.916384015000403
S09,simple,3,near,1,8,80.21494269873368,0,0,1.37152413300009
S09,simple,3,near,1,9,92.16749961310987,0,0,1.23157144499964
S09,simple,3,near,1,10,105.90106654862237,0,0,1.14255878699987
S09,simple,3,near,1,11,121.68102577603862,0,0,0.908692842999699
S09,simple,3,near,1,12,139.81230327940855,1,1,1.12255425800049
S09,simple,3,near,1,13,121.68102577603862,1,0,1.07918994899956
S09,simple,3,near,1,14,105.90106654862237,0,2,1.04887555200003
S09,simple,3,near,1,15,121.68102577603862,1,3,1.05498273800004
S09,simple,3,near,1,16,113.51718111551617,0,4,1.10552268900028
S09,simple,3,near,1,17,121.68102577603862,0,0,1.201546796
S09,simple,3,near,1,18,130.43199177789637,1,5,1.34050547599963
S09,simple,3,near,1,19,121.68102577603862,1,0,1.30616892100079
S09,simple,3,near,1,20,113.51718111551617,0,6,1.00093675799963
S09,simple,3,near,1,21,121.68102577603862,0,0,0.97166682399984
S09,simple,3,near,1,22,130.43199177789637,1,7,1.09832090300006
S09,simple,3,near,1,23,121.68102577603862,1,0,1.05722742000034
S09,simple,3,near,1,24,113.51718111551617,1,0,0.913193417000002
S09,simple,3,near,1,25,105.90106654862237,0,8,1.33492035399922
S09,simple,3,near,1,26,113.51718111551617,0,0,1.554312966
S09,simple,3,near,1,27,121.68102577603862,0,0,1.16771525000058
S09,simple,3,near,1,28,130.43199177789637,0,0,1.43671317000008
S09,simple,3,near,1,29,139.81230327940855,1,9,0.959972392000054
S09,simple,3,near,1,30,130.43199177789637,1,0,1.27945991700017
S09,simple,3,near,1,31,121.68102577603862,0,10,1.16466612899967
S09,simple,3,near,1,32,130.43199177789637,0,0,1.4937962820004
S09,simple,3,near,1,33,139.81230327940855,1,11,1.14053179799976
S09,simple,3,near,1,34,130.43199177789637,1,0,1.22053443000004
S09,simple,3,near,1,35,121.68102577603862,1,0,1.4464348749998
S09,simple,3,near,1,36,113.51718111551617,1,0,1.39057902100012
S09,simple,3,near,1,37,105.90106654862237,0,12,1.180191681
S09,simple,4,near,1,1,30.33874280333043,0,0,0.935496940999656
S09,simple,4,near,1,2,34.85941610767168,0,0,0.708849871999519
S09,simple,4,near,1,3,40.053699629056595,0,0,0.671216460000323
S09,simple,4,near,1,4,46.02196574433174,0,0,0.958832415999495
S09,simple,4,near,1,5,52.87954297824629,0,0,1.30033536500014
S09,simple,4,near,1,6,60.758944568390056,0,0,0.979237560000001
S09,simple,4,near,1,7,69.81242910104828,0,0,1.22872216799988
S09,simple,4,near,1,8,80.21494269873368,0,0,1.13636932600002
S09,simple,4,near,1,9,92.16749961310987,0,0,1.14869781000016
S09,simple,4,near,1,10,105.90106654862237,0,0,1.11288471700027
S09,simple,4,near,1,11,121.68102577603862,1,1,1.13129489699986
S09,simple,4,near,1,12,105.90106654862237,0,2,1.47134335700048
S09,simple,4,near,1,13,121.68102577603862,1,3,1.32170228199993
S09,simple,4,near,1,14,113.51718111551617,1,0,1.13332486900072
S09,simple,4,near,1,15,105.90106654862237,0,4,0.997874114999831
S09,simple,4,near,1,16,113.51718111551617,0,0,1.10833576299956
S09,simple,4,near,1,17,121.68102577603862,0,0,1.09174821499982
S09,simple,4,near,1,18,130.43199177789637,0,0,1.02916025000013
S09,simple,4,near,1,19,139.81230327940855,1,5,1.24606233599934
S09,simple,4,near,1,20,130.43199177789637,1,0,1.04385822999939
S09,simple,4,near,1,21,121.68102577603862,0,6,1.00983966700005
S09,simple,4,near,1,22,130.43199177789637,1,7,1.23703954200028
S09,simple,4,near,1,23,121.68102577603862,0,8,0.945446613999593
S09,simple,4,near,1,24,130.43199177789637,1,9,0.925979499000277
S09,simple,4,near,1,25,121.68102577603862,0,10,1.18684623100035
S09,simple,4,near,1,26,130.43199177789637,1,11,1.18398089600032
S09,simple,4,near,1,27,121.68102577603862,1,0,1.6469738349997
S09,simple,4,near,1,28,113.51718111551617,0,12,1.23685487800049
S10,simple,1,near,1,1,30.33874280333043,0,0,1.27190906000033
S10,simple,1,near,1,2,34.85941610767168,0,0,0.986728375000894
S10,simple,1,near,1,3,40.053699629056595,0,0,2.06361867099986
S10,simple,1,near,1,4,46.02196574433174,0,0,1.93462480599919
S10,simple,1,near,1,5,52.87954297824629,0,0,1.85742198700063
S10,simple,1,near,1,6,60.758944568390056,0,0,1.89035860100012
S10,simple,1,near,1,7,69.81242910104828,0,0,2.61996552799974
S10,simple,1,near,1,8,80.21494269873368,1,1,1.60241402799875
S10,simple,1,near,1,9,69.81242910104828,0,2,2.75483497200003
S10,simple,1,near,1,10,80.21494269873368,1,3,1.28022908499952
S10,simple,1,near,1,11,74.83314773547879,1,0,1.61687129399979
S10,simple,1,near,1,12,69.81242910104828,1,0,2.21942931699959
S10,simple,1,near,1,13,65.12856139924486,1,0,2.06108163999852
S10,simple,1,near,1,14,60.758944568390056,0,4,1.30785019199902
S10,simple,1,near,1,15,65.12856139924486,0,0,0.989321144001224
S10,simple,1,near,1,16,69.81242910104828,0,0,1.03064768999866
S10,simple,1,near,1,17,74.83314773547879,0,0,1.50239510300162
S10,simple,1,near,1,18,80.21494269873368,1,5,1.35936258399852
S10,simple,1,near,1,19,74.83314773547879,1,0,1.38741248800034
S10,simple,1,near,1,20,69.81242910104828,0,6,2.69338468400019
S10,simple,1,near,1,21,74.83314773547879,0,0,2.48808550499962
S10,simple,1,near,1,22,80.21494269873368,1,7,1.21203802399941
S10,simple,1,near,1,23,74.83314773547879,1,0,1.58190263600045
S10,simple,1,near,1,24,69.81242910104828,0,8,2.5463197500012
S10,simple,1,near,1,25,74.83314773547879,0,0,3.04764099400018
S10,simple,1,near,1,26,80.21494269873368,0,0,1.1004068680013
S10,simple,1,near,1,27,85.98378161113389,0,0,1.30382585499865
S10,simple,1,near,1,28,92.16749961310987,1,9,1.12241071300014
S10,simple,1,near,1,29,85.98378161113389,0,10,2.36914910399901
S10,simple,1,near,1,30,92.16749961310987,1,11,1.26270228300018
S10,simple,1,near,1,31,85.98378161113389,1,0,2.46565193100105
S10,simple,1,near,1,32,80.21494269873368,0,12,1.80365069999971
S10,simple,2,far,1,1,280.00000000000017,1,0,1.43589342800078
S10,simple,2,far,1,2,243.68876284944497,1,0,1.23064149399943
S10,simple,2,far,1,3,212.08647549676277,1,0,0.920888224000009
S10,simple,2,far,1,4,184.58246725323292,1,0,1.67295180599831
S10,simple,2,far,1,5,160.64526103085177,0,1,1.26669458200013
S10,simple,2,far,1,6,184.58246725323292,0,0,3.02308991500104
S10,simple,2,far,1,7,212.08647549676277,0,0,1.62511325500054
S10,simple,2,far,1,8,243.68876284944497,0,0,2.04245977900064
S10,simple,2,far,1,9,280.00000000000017,0,0,2.31909189500038
S10,simple,2,far,1,10,280.00000000000017,0,0,2.50381306700001
S10,simple,2,far,1,11,280.00000000000017,1,2,1.20071920200098
S10,simple,2,far,1,12,243.68876284944497,0,3,3.30614741700083
S10,simple,2,far,1,13,261.21419103456964,1,4,2.48744817499937
S10,simple,2,far,1,14,243.68876284944497,0,5,3.03014861099837
S10,simple,2,far,1,15,261.21419103456964,1,6,3.0546241560005
S10,simple,2,far,1,16,243.68876284944497,1,0,1.9545156690001
S10,simple,2,far,1,17,227.3391537569029,0,7,3.01652598200053
S10,simple,2,far,1,18,243.68876284944497,1,8,1.31000524100091
S10,simple,2,far,1,19,227.3391537569029,0,9,1.90569172899995
S10,simple,2,far,1,20,243.68876284944497,0,0,1.44593773300039
S10,simple,2,far,1,21,261.21419103456964,0,0,1.29567018300077
S10,simple,2,far,1,22,280.00000000000017,1,10,2.93480428899966
S10,simple,2,far,1,23,261.21419103456964,0,11,1.08753387700017
S10,simple,2,far,1,24,280.00000000000017,0,0,2.26867359900098
S10,simple,2,far,1,25,280.00000000000017,1,12,1.13162169600037
S10,simple,3,far,1,1,280.00000000000017,1,0,1.96040073800032
S10,simple,3,far,1,2,243.68876284944497,1,0,2.40926994199981
S10,simple,3,far,1,3,212.08647549676277,1,0,1.27050284699908
S10,simple,3,far,1,4,184.58246725323292,1,0,2.44209217299976
S10,simple,3,far,1,5,160.64526103085177,0,1,2.56815985499998
S10,simple,3,far,1,6,184.58246725323292,1,2,1.67220347299917
S10,simple,3,far,1,7,160.64526103085177,0,3,2.60014466100074
S10,simple,3,far,1,8,172.19842808113626,0,0,2.8800983000001
S10,simple,3,far,1,9,184.58246725323292,1,4,3.10933369200029
S10,simple,3,far,1,10,172.19842808113626,0,5,3.99393148799936
S10,simple,3,far,1,11,184.58246725323292,0,0,2.68126757299979
S10,simple,3,far,1,12,197.85713259378545,0,0,2.39277707200017
S10,simple,3,far,1,13,212.08647549676277,1,6,1.97183195200159
S10,simple,3,far,1,14,197.85713259378545,1,0,3.30517738099843
S10,simple,3,far,1,15,184.58246725323292,1,0,2.4360656860008
S10,simple,3,far,1,16,172.19842808113626,1,0,1.36935291900045
S10,simple,3,far,1,17,160.64526103085177,0,7,1.8622125919992
S10,simple,3,far,1,18,172.19842808113626,0,0,1.60594488300012
S10,simple,3,far,1,19,184.58246725323292,0,0,2.84459913799947
S10,simple,3,far,1,20,197.85713259378545,0,0,2.05941707799866
S10,simple,3,far,1,21,212.08647549676277,1,8,2.11668354699941
S10,simple,3,far,1,22,197.85713259378545,1,0,1.71029002700016
S10,simple,3,far,1,23,184.58246725323292,1,0,3.19085661400095
S10,simple,3,far,1,24,172.19842808113626,1,0,3.58568754299995
S10,simple,3,far,1,25,160.64526103085177,0,9,1.29001839800003
S10,simple,3,far,1,26,172.19842808113626,0,0,1.35119303900137
S10,simple,3,far,1,27,184.58246725323292,0,0,2.37831141800052
S10,simple,3,far,1,28,197.85713259378545,0,0,3.30841875899932
S10,simple,3,far,1,29,212.08647549676277,0,0,2.10747884699958
S10,simple,3,far,1,30,227.3391537569029,1,10,1.75696600500123
S10,simple,3,far,1,31,212.08647549676277,1,0,1.48839870700067
S10,simple,3,far,1,32,197.85713259378545,0,11,1.3177204249987
S10,simple,3,far,1,33,212.08647549676277,0,0,3.34731020099935
S10,simple,3,far,1,34,227.3391537569029,0,0,2.39680054599921
S10,simple,3,far,1,35,243.68876284944497,0,0,1.51399579900135
S10,simple,3,far,1,36,261.21419103456964,1,12,2.23728041700087
S10,simple,4,near,1,1,30.33874280333043,0,0,1.29339857699961
S10,simple,4,near,1,2,34.85941610767168,0,0,1.14037660000031
S10,simple,4,near,1,3,40.053699629056595,0,0,1.03029527500075
S10,simple,4,near,1,4,46.02196574433174,0,0,1.73675898799956
S10,simple,4,near,1,5,52.87954297824629,0,0,1.10735403099898
S10,simple,4,near,1,6,60.758944568390056,0,0,1.60491407699919
S10,simple,4,near,1,7,69.81242910104828,0,0,2.87962319800135
S10,simple,4,near,1,8,80.21494269873368,1,1,0.82513848599956
S10,simple,4,near,1,9,69.81242910104828,1,0,1.84747134700046
S10,simple,4,near,1,10,60.758944568390056,0,2,1.15669104900007
S10,simple,4,near,1,11,69.81242910104828,0,0,1.61852904799889
S10,simple,4,near,1,12,74.83314773547879,0,0,1.68393895500049
S10,simple,4,near,1,13,80.21494269873368,0,0,1.22580555400054
S10,simple,4,near,1,14,85.98378161113389,0,0,1.42194696600018
S10,simple,4,near,1,15,92.16749961310987,0,0,2.74491610800033
S10,simple,4,near,1,16,98.79593367213035,0,0,1.02841623200038
S10,simple,4,near,1,17,105.90106654862237,0,0,1.47839946299973
S10,simple,4,near,1,18,113.51718111551617,0,0,1.74869644399951
S10,simple,4,near,1,19,121.68102577603862,1,3,1.2062358839994
S10,simple,4,near,1,20,113.51718111551617,0,4,1.1372969439999
S10,simple,4,near,1,21,121.68102577603862,0,0,1.29280595099954
S10,simple,4,near,1,22,130.43199177789637,0,0,2.18259118999958
S10,simple,4,near,1,23,139.81230327940855,1,5,1.093769694
S10,simple,4,near,1,24,130.43199177789637,1,0,1.52497472700088
S10,simple,4,near,1,25,121.68102577603862,0,6,1.23000184000011
S10,simple,4,near,1,26,130.43199177789637,0,0,1.93010461199992
S10,simple,4,near,1,27,139.81230327940855,0,0,3.24289886900078
S10,simple,4,near,1,28,149.86722108468282,1,7,1.39251401399997
S10,simple,4,near,1,29,139.81230327940855,1,0,1.50514675499835
S10,simple,4,near,1,30,130.43199177789637,1,0,3.07391167199967
S10,simple,4,near,1,31,121.68102577603862,0,8,2.30512194699986
S10,simple,4,near,1,32,130.43199177789637,1,9,2.01421830599975
S10,simple,4,near,1,33,121.68102577603862,0,10,2.40009539600032
S10,simple,4,near,1,34,130.43199177789637,0,0,2.31040812699939
S10,simple,4,near,1,35,139.81230327940855,1,11,2.31224201400073
S10,simple,4,near,1,36,130.43199177789637,0,12,1.68091178900067
S11,simple,1,near,1,1,30.33874280333043,0,0,1.04521443799968
S11,simple,1,near,1,2,34.85941610767168,0,0,0.643954038001539
S11,simple,1,near,1,3,40.053699629056595,0,0,0.561104960001103
S11,simple,1,near,1,4,46.02196574433174,0,0,0.700654347001546
S11,simple,1,near,1,5,52.87954297824629,0,0,0.597308017000614
S11,simple,1,near,1,6,60.758944568390056,0,0,0.590442737000558
S11,simple,1,near,1,7,69.81242910104828,0,0,0.77180918600061
S11,simple,1,near,1,8,80.21494269873368,0,0,0.928830434997508
S11,simple,1,near,1,9,92.16749961310987,0,0,2.37308310400113
S11,simple,1,near,1,10,105.90106654862237,1,1,0.655711510000401
S11,simple,1,near,1,11,92.16749961310987,1,0,2.48784273700221
S11,simple,1,near,1,12,80.21494269873368,0,2,0.971963267998945
S11,simple,1,near,1,13,92.16749961310987,1,3,2.44823040000119
S11,simple,1,near,1,14,85.98378161113389,1,0,3.26751056799912
S11,simple,1,near,1,15,80.21494269873368,0,4,0.526510613999562
S11,simple,1,near,1,16,85.98378161113389,0,0,1.43640973400034
S11,simple,1,near,1,17,92.16749961310987,1,5,1.35789028800355
S11,simple,1,near,1,18,85.98378161113389,1,0,3.36035704900132
S11,simple,1,near,1,19,80.21494269873368,0,6,2.28854325000066
S11,simple,1,near,1,20,85.98378161113389,1,7,1.50781584099968
S11,simple,1,near,1,21,80.21494269873368,0,8,3.24054371300008
S11,simple,1,near,1,22,85.98378161113389,0,0,3.0703929400006
S11,simple,1,near,1,23,92.16749961310987,1,9,2.11553918700156
S11,simple,1,near,1,24,85.98378161113389,1,0,1.65542255100081
S11,simple,1,near,1,25,80.21494269873368,0,10,2.01570044999971
S11,simple,1,near,1,26,85.98378161113389,0,0,2.68533200599995
S11,simple,1,near,1,27,92.16749961310987,1,11,4.05955113899836
S11,simple,1,near,1,28,85.98378161113389,1,0,2.99817369499942
S11,simple,1,near,1,29,80.21494269873368,0,12,2.97384015200078
S11,simple,2,far,1,1,280.00000000000017,1,0,0.654721437997068
S11,simple,2,far,1,2,243.68876284944497,1,0,0.572349737001787
S11,simple,2,far,1,3,212.08647549676277,1,0,0.616478386997187
S11,simple,2,far,1,4,184.58246725323292,1,0,0.570987279999827
S11,simple,2,far,1,5,160.64526103085177,1,0,0.457285705997492
S11,simple,2,far,1,6,139.81230327941006,1,0,0.731495496998832
S11,simple,2,far,1,7,121.68102577603862,1,0,1.29103376800049
S11,simple,2,far,1,8,105.90106654862237,1,0,1.10210166899924
S11,simple,2,far,1,9,92.16749961310987,0,1,3.80762080400018
S11,simple,2,far,1,10,105.90106654862237,0,0,1.9341626610003
S11,simple,2,far,1,11,121.68102577603862,1,2,0.848346019000019
S11,simple,2,far,1,12,105.90106654862237,0,3,3.1595346260001
S11,simple,2,far,1,13,113.51718111551617,1,4,1.18615205900278
S11,simple,2,far,1,14,105.90106654862237,1,0,2.18926321500112
S11,simple,2,far,1,15,98.79593367213131,1,0,1.36360671500006
S11,simple,2,far,1,16,92.16749961310987,1,0,1.60804906400153
S11,simple,2,far,1,17,85.98378161113389,1,0,2.60871083299935
S11,simple,2,far,1,18,80.21494269873368,0,5,1.23604789300225
S11,simple,2,far,1,19,85.98378161113389,0,0,0.823596147001808
S11,simple,2,far,1,20,92.16749961310987,1,6,1.21446834400194
S11,simple,2,far,1,21,85.98378161113389,0,7,2.92068772800121
S11,simple,2,far,1,22,92.16749961310987,1,8,0.60679979699853
S11,simple,2,far,1,23,85.98378161113389,0,9,2.75798547900195
S11,simple,2,far,1,24,92.16749961310987,1,10,0.779610940000566
S11,simple,2,far,1,25,85.98378161113389,0,11,1.0433353039989
S11,simple,2,far,1,26,92.16749961310987,1,12,1.67652855800043
S11,simple,3,near,1,1,30.33874280333043,0,0,1.0232898960021
S11,simple,3,near,1,2,34.85941610767168,0,0,0.521609237002849
S11,simple,3,near,1,3,40.053699629056595,0,0,0.780202680001821
S11,simple,3,near,1,4,46.02196574433174,0,0,0.575864654001634
S11,simple,3,near,1,5,52.87954297824629,0,0,0.696242504000111
S11,simple,3,near,1,6,60.758944568390056,0,0,0.745707777001371
S11,simple,3,near,1,7,69.81242910104828,0,0,0.65407567299917
S11,simple,3,near,1,8,80.21494269873368,0,0,0.849349985997833
S11,simple,3,near,1,9,92.16749961310987,0,0,0.910900681999919
S11,simple,3,near,1,10,105.90106654862237,0,0,1.03429485499873
S11,simple,3,near,1,11,121.68102577603862,1,1,0.909773719999066
S11,simple,3,near,1,12,105.90106654862237,1,0,0.507021419998637
S11,simple,3,near,1,13,92.16749961310987,0,2,2.05440598299901
S11,simple,3,near,1,14,105.90106654862237,0,0,1.85183873500137
S11,simple,3,near,1,15,113.51718111551617,1,3,2.37586354199811
S11,simple,3,near,1,16,105.90106654862237,0,4,2.53607467799884
S11,simple,3,near,1,17,113.51718111551617,0,0,2.44919127700268
S11,simple,3,near,1,18,121.68102577603862,1,5,0.966877345999819
S11,simple,3,near,1,19,113.51718111551617,1,0,0.91527862699877
S11,simple,3,near,1,20,105.90106654862237,1,0,0.594202416999906
S11,simple,3,near,1,21,98.79593367213035,1,0,0.946883193002577
S11,simple,3,near,1,22,92.16749961310987,1,0,1.42350871400049
S11,simple,3,near,1,23,85.98378161113389,0,6,0.950876586000959
S11,simple,3,near,1,24,92.16749961310987,0,0,1.19435786899703
S11,simple,3,near,1,25,98.79593367213035,1,7,0.699337037000078
S11,simple,3,near,1,26,92.16749961310987,0,8,1.90612603900081
S11,simple,3,near,1,27,98.79593367213035,0,0,3.19411215400032
S11,simple,3,near,1,28,105.90106654862237,1,9,1.93729052200069
S11,simple,3,near,1,29,98.79593367213035,0,10,3.91389718899882
S11,simple,3,near,1,30,105.90106654862237,0,0,3.1344595720002
S11,simple,3,near,1,31,113.51718111551617,1,11,0.657975949001411
S11,simple,3,near,1,32,105.90106654862237,1,0,1.30751247599983
S11,simple,3,near,1,33,98.79593367213035,1,0,3.06244926900035
S11,simple,3,near,1,34,92.16749961310987,0,12,2.54936361799992
S11,simple,4,far,1,1,280.00000000000017,1,0,0.570628931000101
S11,simple,4,far,1,2,243.68876284944497,1,0,0.5046305629985
S11,simple,4,far,1,3,212.08647549676277,1,0,0.581209281001065
S11,simple,4,far,1,4,184.58246725323292,1,0,0.696380284000043
S11,simple,4,far,1,5,160.64526103085177,1,0,0.672019521000038
S11,simple,4,far,1,6,139.81230327941006,1,0,0.539718132000417
S11,simple,4,far,1,7,121.68102577603862,1,0,1.00919208400228
S11,simple,4,far,1,8,105.90106654862237,1,0,0.56341305100068
S11,simple,4,far,1,9,92.16749961310987,1,0,1.61316744300348
S11,simple,4,far,1,10,80.21494269873368,0,1,1.01427598000009
S11,simple,4,far,1,11,92.16749961310987,0,0,0.798387640999863
S11,simple,4,far,1,12,105.90106654862237,0,0,2.76920954399975
S11,simple,4,far,1,13,121.68102577603862,1,2,0.59045716699984
S11,simple,4,far,1,14,105.90106654862237,1,0,1.74532997100323
S11,simple,4,far,1,15,98.79593367213131,0,3,0.742434566000156
S11,simple,4,far,1,16,105.90106654862237,1,4,0.67986626000129
S11,simple,4,far,1,17,98.79593367213131,0,5,1.39371162600219
S11,simple,4,far,1,18,105.90106654862237,0,0,1.24870292600099
S11,simple,4,far,1,19,113.51718111551617,1,6,0.74920498499705
S11,simple,4,far,1,20,105.90106654862237,1,0,1.1090542410020101
S11,simple,4,far,1,21,98.79593367213131,1,0,2.4149419489986
S11,simple,4,far,1,22,92.16749961310987,0,7,0.683598905001418
S11,simple,4,far,1,23,98.79593367213131,0,0,3.45655388500018
S11,simple,4,far,1,24,105.90106654862237,1,8,0.640867439000431
S11,simple,4,far,1,25,98.79593367213131,0,9,3.20807892799712
S11,simple,4,far,1,26,105.90106654862237,1,10,0.661050487000466
S11,simple,4,far,1,27,98.79593367213131,1,0,1.89919240499876
S11,simple,4,far,1,28,92.16749961310987,1,0,2.29190476499934
S11,simple,4,far,1,29,85.98378161113389,0,11,0.912681537996832
S11,simple,4,far,1,30,92.16749961310987,0,0,2.29692334700303
S11,simple,4,far,1,31,98.79593367213131,1,12,0.690223494999373
S12,simple,1,near,1,1,30.33874280333043,0,0,0.401464287999261
S12,simple,1,near,1,2,34.85941610767168,0,0,0.63960626500193
S12,simple,1,near,1,3,40.053699629056595,0,0,0.511604426999838
S12,simple,1,near,1,4,46.02196574433174,0,0,0.518762159998005
S12,simple,1,near,1,5,52.87954297824629,0,0,0.65609155600032
S12,simple,1,near,1,6,60.758944568390056,0,0,0.624606919998769
S12,simple,1,near,1,7,69.81242910104828,0,0,0.58898912800214
S12,simple,1,near,1,8,80.21494269873368,0,0,0.54573215200071
S12,simple,1,near,1,9,92.16749961310987,0,0,0.489464359001431
S12,simple,1,near,1,10,105.90106654862237,0,0,0.922161974001938
S12,simple,1,near,1,11,121.68102577603862,0,0,1.64261472200087
S12,simple,1,near,1,12,139.81230327940855,1,1,0.689268116999301
S12,simple,1,near,1,13,121.68102577603862,0,2,1.4760596399974
S12,simple,1,near,1,14,139.81230327940855,1,3,1.03644062500098
S12,simple,1,near,1,15,130.43199177789637,1,0,1.59415694899872
S12,simple,1,near,1,16,121.68102577603862,0,4,1.47491643499961
S12,simple,1,near,1,17,130.43199177789637,1,5,1.45338421700217
S12,simple,1,near,1,18,121.68102577603862,0,6,0.823354924999876
S12,simple,1,near,1,19,130.43199177789637,0,0,1.4075124919982
S12,simple,1,near,1,20,139.81230327940855,1,7,0.944072829002835
S12,simple,1,near,1,21,130.43199177789637,0,8,1.54000038400045
S12,simple,1,near,1,22,139.81230327940855,1,9,1.47447629400267
S12,simple,1,near,1,23,130.43199177789637,0,10,1.68764146100148
S12,simple,1,near,1,24,139.81230327940855,1,11,0.703333821998967
S12,simple,1,near,1,25,130.43199177789637,0,12,0.87265589999879
S12,simple,2,near,1,1,30.33874280333043,0,0,0.534344342002441
S12,simple,2,near,1,2,34.85941610767168,0,0,0.498768290999578
S12,simple,2,near,1,3,40.053699629056595,0,0,0.502220149002824
S12,simple,2,near,1,4,46.02196574433174,0,0,0.449470208997809
S12,simple,2,near,1,5,52.87954297824629,0,0,0.622574282999267
S12,simple,2,near,1,6,60.758944568390056,0,0,0.480919575998996
S12,simple,2,near,1,7,69.81242910104828,0,0,0.46018484500018503
S12,simple,2,near,1,8,80.21494269873368,0,0,0.603652533001878
S12,simple,2,near,1,9,92.16749961310987,0,0,0.710876673001621
S12,simple,2,near,1,10,105.90106654862237,0,0,0.644992233999801
S12,simple,2,near,1,11,121.68102577603862,1,1,0.954761615997995
S12,simple,2,near,1,12,105.90106654862237,0,2,0.776196168000752
S12,simple,2,near,1,13,121.68102577603862,1,3,0.767828078001912
S12,simple,2,near,1,14,113.51718111551617,0,4,0.539922708001541
S12,simple,2,near,1,15,121.68102577603862,1,5,0.80960256400067
S12,simple,2,near,1,16,113.51718111551617,0,6,0.957540461000463
S12,simple,2,near,1,17,121.68102577603862,1,7,0.733173692999117
S12,simple,2,near,1,18,113.51718111551617,0,8,0.59767106900108
S12,simple,2,near,1,19,121.68102577603862,1,9,0.942970070998854
S12,simple,2,near,1,20,113.51718111551617,0,10,0.77163482800097
S12,simple,2,near,1,21,121.68102577603862,0,0,1.07233543199982
S12,simple,2,near,1,22,130.43199177789637,1,11,1.53317852299733
S12,simple,2,near,1,23,121.68102577603862,0,12,0.88142042400068
S12,simple,3,far,1,1,280.00000000000017,1,0,0.753669892001199
S12,simple,3,far,1,2,243.68876284944497,1,0,0.669381883002643
S12,simple,3,far,1,3,212.08647549676277,1,0,0.54914724199989
S12,simple,3,far,1,4,184.58246725323292,1,0,0.808718560998386
S12,simple,3,far,1,5,160.64526103085177,1,0,0.875457731999632
S12,simple,3,far,1,6,139.81230327941006,1,0,0.70875357299883
S12,simple,3,far,1,7,121.68102577603862,0,1,1.73720937200051
S12,simple,3,far,1,8,139.81230327941006,1,2,1.76491346299736
S12,simple,3,far,1,9,121.68102577603862,0,3,0.693599092999648
S12,simple,3,far,1,10,130.43199177789637,0,0,1.09908812299909
S12,simple,3,far,1,11,139.81230327941006,1,4,0.858696039998904
S12,simple,3,far,1,12,130.43199177789637,0,5,1.73590952700033
S12,simple,3,far,1,13,139.81230327941006,0,0,1.11481562799963
S12,simple,3,far,1,14,149.86722108468442,1,6,0.869265993998852
S12,simple,3,far,1,15,139.81230327941006,1,0,0.79267893100041
S12,simple,3,far,1,16,130.43199177789637,1,0,1.47777029500139
S12,simple,3,far,1,17,121.68102577603862,0,7,1.07563799499985
S12,simple,3,far,1,18,130.43199177789637,0,0,0.830893851998553
S12,simple,3,far,1,19,139.81230327941006,0,0,0.964113630998327
S12,simple,3,far,1,20,149.86722108468442,1,8,1.57302903900199
S12,simple,3,far,1,21,139.81230327941006,1,0,0.663442565000878
S12,simple,3,far,1,22,130.43199177789637,1,0,1.38403466099771
S12,simple,3,far,1,23,121.68102577603862,0,9,0.794813103002525
S12,simple,3,far,1,24,130.43199177789637,0,0,0.710224016998836
S12,simple,3,far,1,25,139.81230327941006,0,0,0.85533194099844
S12,simple,3,far,1,26,149.86722108468442,1,10,1.36031358400214
S12,simple,3,far,1,27,139.81230327941006,0,11,1.58130552500006
S12,simple,3,far,1,28,149.86722108468442,1,12,0.771476651003468
S12,simple,4,far,1,1,280.00000000000017,1,0,0.55614376500307094
S12,simple,4,far,1,2,243.68876284944497,1,0,0.457231724998564
S12,simple,4,far,1,3,212.08647549676277,1,0,0.502696620002098
S12,simple,4,far,1,4,184.58246725323292,1,0,0.5040226050005
S12,simple,4,far,1,5,160.64526103085177,1,0,0.596753404999617
S12,simple,4,far,1,6,139.81230327941006,1,0,0.862592008001229
S12,simple,4,far,1,7,121.68102577603862,0,1,0.610635230001208
S12,simple,4,far,1,8,139.81230327941006,0,0,0.988147120999201
S12,simple,4,far,1,9,160.64526103085177,1,2,0.763536868998926
S12,simple,4,far,1,10,139.81230327941006,0,3,2.4156522129997
S12,simple,4,far,1,11,149.86722108468442,1,4,0.64714929800175
S12,simple,4,far,1,12,139.81230327941006,0,5,0.850128417001542
S12,simple,4,far,1,13,149.86722108468442,1,6,0.953696324999328
S12,simple,4,far,1,14,139.81230327941006,1,0,1.17692259599789
S12,simple,4,far,1,15,130.43199177789637,0,7,0.563753370999621
S12,simple,4,far,1,16,139.81230327941006,0,0,0.839926680000644
S12,simple,4,far,1,17,149.86722108468442,1,8,0.685505043999001
S12,simple,4,far,1,18,139.81230327941006,0,9,0.583351331999438
S12,simple,4,far,1,19,149.86722108468442,1,10,0.59974752099879
S12,simple,4,far,1,20,139.81230327941006,0,11,1.63506572500046
S12,simple,4,far,1,21,149.86722108468442,0,0,1.62276580500111
S12,simple,4,far,1,22,160.64526103085177,0,0,1.51966733299923
S12,simple,4,far,1,23,172.19842808113626,1,12,0.932560737997846
S13,simple,1,far,1,1,280.00000000000017,1,0,0.912526064999838
S13,simple,1,far,1,2,243.68876284944497,1,0,1.28673448999689
S13,simple,1,far,1,3,212.08647549676277,1,0,1.27576078700076
S13,simple,1,far,1,4,184.58246725323292,1,0,1.45812959500108
S13,simple,1,far,1,5,160.64526103085177,0,1,1.60793923800156
S13,simple,1,far,1,6,184.58246725323292,1,2,2.77938917900246
