Subject,Condition,Block,Start,StairId,BranchStart,Trial,Distance,Response,Reversal,RT,OutlierDist,OutlierSubj
S51,simple,1,near,1,near,1,20,0,0,0.662631281999893,FALSE,FALSE
S51,simple,1,near,1,near,2,40,0,0,0.649694834000002,FALSE,FALSE
S51,simple,1,near,1,near,3,60,0,0,0.625750307000089,FALSE,FALSE
S51,simple,1,near,1,near,4,80,0,0,0.672395645000051,FALSE,FALSE
S51,simple,1,near,1,near,5,100,0,0,0.966167939000115,FALSE,FALSE
S51,simple,1,near,1,near,6,120,1,1,0.707145474999834,FALSE,FALSE
S51,simple,1,near,1,near,7,100,0,2,1.02340913200032,FALSE,FALSE
S51,simple,1,near,1,near,8,120,1,3,0.658633876000295,FALSE,FALSE
S51,simple,1,near,1,near,9,110,1,0,1.12865462799982,FALSE,FALSE
S51,simple,1,near,1,near,10,100,0,4,0.79288661999999,FALSE,FALSE
S51,simple,1,near,1,near,11,110,0,0,0.893916945000001,FALSE,FALSE
S51,simple,1,near,1,near,12,120,0,0,1.26170101800017,FALSE,FALSE
S51,simple,1,near,1,near,13,130,1,5,0.69215043200029,FALSE,FALSE
S51,simple,1,near,1,near,14,120,0,6,1.34162374800007,FALSE,FALSE
S51,simple,1,near,1,near,15,130,1,7,0.674208779999844,FALSE,FALSE
S51,simple,1,near,1,near,16,120,1,0,0.721671543999946,FALSE,FALSE
S51,simple,1,near,1,near,17,110,1,0,1.07125078900026,FALSE,FALSE
S51,simple,1,near,1,near,18,100,0,8,0.733544957000049,FALSE,FALSE
S51,simple,1,near,1,near,19,110,0,0,0.879755617999763,FALSE,FALSE
S51,simple,1,near,1,near,20,120,0,0,0.969200081999588,FALSE,FALSE
S51,simple,1,near,1,near,21,130,0,0,0.759626125000068,FALSE,FALSE
S51,simple,1,near,1,near,22,140,0,0,0.860621467000328,FALSE,FALSE
S51,simple,1,near,1,near,23,150,0,0,1.41439650400025,FALSE,FALSE
S51,simple,1,near,1,near,24,160,1,9,0.655556410000372,FALSE,FALSE
S51,simple,1,near,1,near,25,150,1,0,0.727031775999876,FALSE,FALSE
S51,simple,1,near,1,near,26,140,1,0,1.042620833,FALSE,FALSE
S51,simple,1,near,1,near,27,130,1,0,0.999158990000069,FALSE,FALSE
S51,simple,1,near,1,near,28,120,1,0,1.50672310100026,FALSE,FALSE
S51,simple,1,near,1,near,29,110,0,10,1.12011630699999,FALSE,FALSE
S51,simple,1,near,1,near,30,120,0,0,0.888693541000066,FALSE,FALSE
S51,simple,1,near,1,near,31,130,0,0,0.827163378000023,FALSE,FALSE
S51,simple,1,near,1,near,32,140,0,0,0.945315864999884,FALSE,FALSE
S51,simple,1,near,1,near,33,150,1,11,0.833635563999906,FALSE,FALSE
S51,simple,1,near,1,near,34,140,0,12,1.10246984300011,FALSE,FALSE
S51,simple,2,near,1,near,1,20,0,0,0.657008549000238,FALSE,FALSE
S51,simple,2,near,1,near,2,40,0,0,0.633885500999895,FALSE,FALSE
S51,simple,2,near,1,near,3,60,0,0,0.654952294000395,FALSE,FALSE
S51,simple,2,near,1,near,4,80,0,0,0.56112542000028,FALSE,FALSE
S51,simple,2,near,1,near,5,100,0,0,0.635532651999711,FALSE,FALSE
S51,simple,2,near,1,near,6,120,1,1,0.915172112000164,FALSE,FALSE
S51,simple,2,near,1,near,7,100,0,2,1.13607546200001,FALSE,FALSE
S51,simple,2,near,1,near,8,120,1,3,0.697219293999751,FALSE,FALSE
S51,simple,2,near,1,near,9,110,1,0,0.669520553999973,FALSE,FALSE
S51,simple,2,near,1,near,10,100,0,4,1.0219283499996,FALSE,FALSE
S51,simple,2,near,1,near,11,110,0,0,1.00327764500025,FALSE,FALSE
S51,simple,2,near,1,near,12,120,1,5,0.601847160000034,FALSE,FALSE
S51,simple,2,near,1,near,13,110,1,0,0.700107851999746,FALSE,FALSE
S51,simple,2,near,1,near,14,100,1,0,0.645278752000195,FALSE,FALSE
S51,simple,2,near,1,near,15,90,0,6,0.883556195999972,FALSE,FALSE
S51,simple,2,near,1,near,16,100,0,0,0.731976821999979,FALSE,FALSE
S51,simple,2,near,1,near,17,110,0,0,0.949666199000148,FALSE,FALSE
S51,simple,2,near,1,near,18,120,1,7,0.615094299999782,FALSE,FALSE
S51,simple,2,near,1,near,19,110,1,0,0.865110600999742,FALSE,FALSE
S51,simple,2,near,1,near,20,100,1,0,1.15532538100024,FALSE,FALSE
S51,simple,2,near,1,near,21,90,0,8,0.634519066999928,FALSE,FALSE
S51,simple,2,near,1,near,22,100,0,0,0.545926588999919,FALSE,FALSE
S51,simple,2,near,1,near,23,110,0,0,0.588871353999821,TRUE,FALSE
S51,simple,2,near,1,near,24,120,0,0,0.690421203999904,FALSE,FALSE
S51,simple,2,near,1,near,25,130,0,0,0.72697379400006,FALSE,FALSE
S51,simple,2,near,1,near,26,140,1,9,0.529189116999987,FALSE,FALSE
S51,simple,2,near,1,near,27,130,0,10,1.25762619500028,TRUE,FALSE
S51,simple,2,near,1,near,28,140,1,11,0.620807506999881,FALSE,FALSE
S51,simple,2,near,1,near,29,130,1,0,0.653233,FALSE,FALSE
S51,simple,2,near,1,near,30,120,1,0,0.793667728999935,FALSE,FALSE
S51,simple,2,near,1,near,31,110,0,12,0.948744586999965,FALSE,FALSE
S51,simple,3,far,1,far,1,220,1,0,0.689159343000028,FALSE,FALSE
S51,simple,3,far,1,far,2,200,1,0,0.750293804999728,FALSE,FALSE
S51,simple,3,far,1,far,3,180,1,0,0.722771595000268,FALSE,FALSE
S51,simple,3,far,1,far,4,160,1,0,1.067315624,FALSE,FALSE
S51,simple,3,far,1,far,5,140,1,0,1.3080691780001,FALSE,FALSE
S51,simple,3,far,1,far,6,120,0,1,1.41274568999961,FALSE,FALSE
S51,simple,3,far,1,far,7,140,0,0,0.810645854000086,FALSE,FALSE
S51,simple,3,far,1,far,8,160,1,2,0.747112397999899,FALSE,FALSE
S51,simple,3,far,1,far,9,140,0,3,0.931603583999731,FALSE,FALSE
S51,simple,3,far,1,far,10,150,1,4,0.702385993000007,FALSE,FALSE
S51,simple,3,far,1,far,11,140,0,5,0.974217244000101,FALSE,FALSE
S51,simple,3,far,1,far,12,150,1,6,0.91455348799991,FALSE,FALSE
S51,simple,3,far,1,far,13,140,1,0,0.992727741999715,FALSE,FALSE
S51,simple,3,far,1,far,14,130,0,7,1.03396164600008,FALSE,FALSE
S51,simple,3,far,1,far,15,140,0,0,0.756622128999879,FALSE,FALSE
S51,simple,3,far,1,far,16,150,1,8,0.99783014500008,FALSE,FALSE
S51,simple,3,far,1,far,17,140,0,9,1.02742742300006,FALSE,FALSE
S51,simple,3,far,1,far,18,150,0,0,0.882192052000391,FALSE,FALSE
S51,simple,3,far,1,far,19,160,1,10,0.765413977999742,FALSE,FALSE
S51,simple,3,far,1,far,20,150,1,0,1.0793463570003,FALSE,FALSE
S51,simple,3,far,1,far,21,140,0,11,0.951438361000328,FALSE,FALSE
S51,simple,3,far,1,far,22,150,0,0,0.861161611000171,FALSE,FALSE
S51,simple,3,far,1,far,23,160,0,0,1.08028515599972,FALSE,FALSE
S51,simple,3,far,1,far,24,170,0,0,0.787753436000003,FALSE,FALSE
S51,simple,3,far,1,far,25,180,1,12,0.924710594999851,FALSE,FALSE
S51,simple,4,far,1,far,1,220,1,0,0.754230592000113,FALSE,FALSE
S51,simple,4,far,1,far,2,200,1,0,0.682624678000138,FALSE,FALSE
S51,simple,4,far,1,far,3,180,1,0,0.71366308000006,FALSE,FALSE
S51,simple,4,far,1,far,4,160,1,0,0.816280056999858,FALSE,FALSE
S51,simple,4,far,1,far,5,140,0,1,0.853559885999857,FALSE,FALSE
S51,simple,4,far,1,far,6,160,0,0,0.909514940999998,FALSE,FALSE
S51,simple,4,far,1,far,7,180,1,2,0.70675405799966,FALSE,FALSE
S51,simple,4,far,1,far,8,160,1,0,0.871724282999821,FALSE,FALSE
S51,simple,4,far,1,far,9,150,1,0,1.14824242899977,FALSE,FALSE
S51,simple,4,far,1,far,10,140,1,0,0.816057015000297,FALSE,FALSE
S51,simple,4,far,1,far,11,130,0,3,0.826004347999969,TRUE,FALSE
S51,simple,4,far,1,far,12,140,0,0,0.760010179000346,FALSE,FALSE
S51,simple,4,far,1,far,13,150,0,0,0.916814066999905,FALSE,FALSE
S51,simple,4,far,1,far,14,160,1,4,0.837469464999685,FALSE,FALSE
S51,simple,4,far,1,far,15,150,1,0,1.23869146600009,FALSE,FALSE
S51,simple,4,far,1,far,16,140,1,0,1.40401959099972,FALSE,FALSE
S51,simple,4,far,1,far,17,130,0,5,1.17917799999987,FALSE,FALSE
S51,simple,4,far,1,far,18,140,0,0,1.46153192800011,FALSE,FALSE
S51,simple,4,far,1,far,19,150,1,6,1.56061245000001,TRUE,FALSE
S51,simple,4,far,1,far,20,140,0,7,1.36591792299987,FALSE,FALSE
S51,simple,4,far,1,far,21,150,1,8,0.899436033000256,FALSE,FALSE
S51,simple,4,far,1,far,22,140,1,0,1.15393397199978,FALSE,FALSE
S51,simple,4,far,1,far,23,130,0,9,1.52594811100016,TRUE,FALSE
S51,simple,4,far,1,far,24,140,1,10,0.900969029000407,FALSE,FALSE
S51,simple,4,far,1,far,25,130,0,11,1.04784956699996,FALSE,FALSE
S51,simple,4,far,1,far,26,140,0,0,1.09862495799962,FALSE,FALSE
S51,simple,4,far,1,far,27,150,0,0,0.845997060000172,FALSE,FALSE
S51,simple,4,far,1,far,28,160,0,0,0.701413715999934,FALSE,FALSE
S51,simple,4,far,1,far,29,170,0,0,0.986499078000179,FALSE,FALSE
S51,simple,4,far,1,far,30,180,1,12,0.860137667000345,FALSE,FALSE
S52,simple,1,near,1,near,1,20,0,0,0.691774261999853,FALSE,FALSE
S52,simple,1,near,1,near,2,40,0,0,0.461510137999539,FALSE,FALSE
S52,simple,1,near,1,near,3,60,0,0,0.439373092999631,FALSE,FALSE
S52,simple,1,near,1,near,4,80,0,0,0.712669125000502,FALSE,FALSE
S52,simple,1,near,1,near,5,100,1,1,1.4604663629998,FALSE,FALSE
S52,simple,1,near,1,near,6,80,0,2,0.68464702700021,FALSE,FALSE
S52,simple,1,near,1,near,7,100,0,0,1.57234083499952,FALSE,FALSE
S52,simple,1,near,1,near,8,110,1,3,0.57595700300044,FALSE,FALSE
S52,simple,1,near,1,near,9,100,1,0,1.30893694799943,FALSE,FALSE
S52,simple,1,near,1,near,10,90,0,4,0.940153192000253,FALSE,FALSE
S52,simple,1,near,1,near,11,100,0,0,0.710305603999586,FALSE,FALSE
S52,simple,1,near,1,near,12,110,1,5,0.740893989000142,FALSE,FALSE
S52,simple,1,near,1,near,13,100,0,6,0.817180910000388,FALSE,FALSE
S52,simple,1,near,1,near,14,110,1,7,0.669897288000357,FALSE,FALSE
S52,simple,1,near,1,near,15,100,0,8,0.687417717999779,FALSE,FALSE
S52,simple,1,near,1,near,16,110,0,0,0.816356192000057,FALSE,FALSE
S52,simple,1,near,1,near,17,120,1,9,0.829731922000065,FALSE,FALSE
S52,simple,1,near,1,near,18,110,0,10,0.882915831000901,FALSE,FALSE
S52,simple,1,near,1,near,19,120,0,0,1.15301847499995,FALSE,FALSE
S52,simple,1,near,1,near,20,130,1,11,0.646320011000171,FALSE,FALSE
S52,simple,1,near,1,near,21,120,1,0,0.682411450000473,FALSE,FALSE
S52,simple,1,near,1,near,22,110,1,0,0.682710542000677,FALSE,FALSE
S52,simple,1,near,1,near,23,100,0,12,0.986767143999714,FALSE,FALSE
S52,simple,2,far,1,far,1,220,1,0,0.613488158999644,FALSE,FALSE
S52,simple,2,far,1,far,2,200,1,0,0.560266542000136,FALSE,FALSE
S52,simple,2,far,1,far,3,180,1,0,0.520002010000098,FALSE,FALSE
S52,simple,2,far,1,far,4,160,1,0,0.53758385799938,FALSE,FALSE
S52,simple,2,far,1,far,5,140,1,0,0.952980539000237,FALSE,FALSE
S52,simple,2,far,1,far,6,120,0,1,1.22122253299949,FALSE,FALSE
S52,simple,2,far,1,far,7,140,1,2,0.868643004999285,FALSE,FALSE
S52,simple,2,far,1,far,8,120,1,0,0.757296417999896,FALSE,FALSE
S52,simple,2,far,1,far,9,110,0,3,0.87286725299964,FALSE,FALSE
S52,simple,2,far,1,far,10,120,0,0,0.737406332999853,FALSE,FALSE
S52,simple,2,far,1,far,11,130,0,0,1.03987873500046,FALSE,FALSE
S52,simple,2,far,1,far,12,140,1,4,0.510185617000388,FALSE,FALSE
S52,simple,2,far,1,far,13,130,0,5,0.940265872000055,FALSE,FALSE
S52,simple,2,far,1,far,14,140,1,6,3.72012598299989,TRUE,TRUE
S52,simple,2,far,1,far,15,130,1,0,1.33608241799993,FALSE,FALSE
S52,simple,2,far,1,far,16,120,0,7,0.670637975999853,FALSE,FALSE
S52,simple,2,far,1,far,17,130,0,0,1.406256149,FALSE,FALSE
S52,simple,2,far,1,far,18,140,1,8,0.623109131000092,FALSE,FALSE
S52,simple,2,far,1,far,19,130,0,9,0.652847671000018,FALSE,FALSE
S52,simple,2,far,1,far,20,140,0,0,1.05420370000047,FALSE,FALSE
S52,simple,2,far,1,far,21,150,1,10,0.616637703000379,FALSE,FALSE
S52,simple,2,far,1,far,22,140,1,0,1.11257181199926,FALSE,FALSE
S52,simple,2,far,1,far,23,130,0,11,0.887849740000092,FALSE,FALSE
S52,simple,2,far,1,far,24,140,0,0,0.751179083000352,FALSE,FALSE
S52,simple,2,far,1,far,25,150,1,12,0.637868236000031,FALSE,FALSE
S52,simple,3,near,1,near,1,20,0,0,0.694181769999886,FALSE,FALSE
S52,simple,3,near,1,near,2,40,0,0,0.450999403000424,FALSE,FALSE
S52,simple,3,near,1,near,3,60,0,0,0.31615542200052,FALSE,TRUE
S52,simple,3,near,1,near,4,80,0,0,0.598353886000041,FALSE,FALSE
S52,simple,3,near,1,near,5,100,0,0,0.84977575800076,FALSE,FALSE
S52,simple,3,near,1,near,6,120,1,1,0.543165211000087,FALSE,FALSE
S52,simple,3,near,1,near,7,100,1,0,0.584107122000205,FALSE,FALSE
S52,simple,3,near,1,near,8,80,0,2,0.618754502999764,FALSE,FALSE
S52,simple,3,near,1,near,9,100,0,0,0.977945960000397,FALSE,FALSE
S52,simple,3,near,1,near,10,110,1,3,0.766410916000495,FALSE,FALSE
S52,simple,3,near,1,near,11,100,0,4,0.829513006000525,FALSE,FALSE
S52,simple,3,near,1,near,12,110,1,5,1.46112919899952,TRUE,FALSE
S52,simple,3,near,1,near,13,100,0,6,1.13588465400062,FALSE,FALSE
S52,simple,3,near,1,near,14,110,1,7,1.0627023220004,FALSE,FALSE
S52,simple,3,near,1,near,15,100,0,8,0.840976454999691,FALSE,FALSE
S52,simple,3,near,1,near,16,110,0,0,1.15594770600001,FALSE,FALSE
S52,simple,3,near,1,near,17,120,0,0,1.27869266800008,FALSE,FALSE
S52,simple,3,near,1,near,18,130,1,9,4.67157265599963,FALSE,TRUE
S52,simple,3,near,1,near,19,120,1,0,0.886252104999585,FALSE,FALSE
S52,simple,3,near,1,near,20,110,0,10,0.766811712000163,FALSE,FALSE
S52,simple,3,near,1,near,21,120,1,11,0.59065893099978,FALSE,FALSE
S52,simple,3,near,1,near,22,110,0,12,0.837053771999308,FALSE,FALSE
S52,simple,4,far,1,far,1,220,1,0,0.667810620999262,FALSE,FALSE
S52,simple,4,far,1,far,2,200,1,0,0.455159201000242,FALSE,FALSE
S52,simple,4,far,1,far,3,180,1,0,0.479731098999764,FALSE,FALSE
S52,simple,4,far,1,far,4,160,1,0,0.498647926000558,FALSE,FALSE
S52,simple,4,far,1,far,5,140,1,0,0.724673857000198,FALSE,FALSE
S52,simple,4,far,1,far,6,120,1,0,0.9375843910002,FALSE,FALSE
S52,simple,4,far,1,far,7,100,0,1,0.639006096999765,FALSE,FALSE
S52,simple,4,far,1,far,8,120,0,0,1.00516084900028,FALSE,FALSE
S52,simple,4,far,1,far,9,140,1,2,0.901245621999806,FALSE,FALSE
S52,simple,4,far,1,far,10,120,0,3,0.807613760000095,FALSE,FALSE
S52,simple,4,far,1,far,11,130,1,4,1.29652086199985,FALSE,FALSE
S52,simple,4,far,1,far,12,120,1,0,1.1800182220004,FALSE,FALSE
S52,simple,4,far,1,far,13,110,1,0,0.668066136000562,FALSE,FALSE
S52,simple,4,far,1,far,14,100,0,5,0.845432180999524,FALSE,FALSE
S52,simple,4,far,1,far,15,110,0,0,0.962592793999647,FALSE,FALSE
S52,simple,4,far,1,far,16,120,0,0,1.6231945189993,FALSE,FALSE
S52,simple,4,far,1,far,17,130,1,6,0.706951565999589,FALSE,FALSE
S52,simple,4,far,1,far,18,120,0,7,0.916707377999955,FALSE,FALSE
S52,simple,4,far,1,far,19,130,1,8,0.653013899000143,FALSE,FALSE
S52,simple,4,far,1,far,20,120,1,0,0.95096355700025,FALSE,FALSE
S52,simple,4,far,1,far,21,110,0,9,1.4204401500001,FALSE,FALSE
S52,simple,4,far,1,far,22,120,1,10,1.27327011100078,FALSE,FALSE
S52,simple,4,far,1,far,23,110,1,0,1.22444247599924,FALSE,FALSE
S52,simple,4,far,1,far,24,100,0,11,0.678223350000735,FALSE,FALSE
S52,simple,4,far,1,far,25,110,0,0,1.23894163899968,FALSE,FALSE
S52,simple,4,far,1,far,26,120,1,12,1.42393034100041,FALSE,FALSE
S53,simple,1,near,1,near,1,20,0,0,0.598749103000955,FALSE,FALSE
S53,simple,1,near,1,near,2,40,0,0,0.494444979000036,FALSE,FALSE
S53,simple,1,near,1,near,3,60,0,0,0.716467801999897,FALSE,FALSE
S53,simple,1,near,1,near,4,80,0,0,0.793881267998586,FALSE,FALSE
S53,simple,1,near,1,near,5,100,1,1,0.728550666999581,FALSE,FALSE
S53,simple,1,near,1,near,6,80,0,2,1.11279453600037,FALSE,FALSE
S53,simple,1,near,1,near,7,100,1,3,0.642943189999642,FALSE,FALSE
S53,simple,1,near,1,near,8,90,1,0,0.562606502999188,FALSE,FALSE
S53,simple,1,near,1,near,9,80,0,4,1.26278922900019,FALSE,FALSE
S53,simple,1,near,1,near,10,90,0,0,1.03548484299972,FALSE,FALSE
S53,simple,1,near,1,near,11,100,1,5,0.525428876999285,FALSE,FALSE
S53,simple,1,near,1,near,12,90,1,0,0.612607318998926,FALSE,FALSE
S53,simple,1,near,1,near,13,80,0,6,0.902191457998924,FALSE,FALSE
S53,simple,1,near,1,near,14,90,1,7,0.92108276900035,FALSE,FALSE
S53,simple,1,near,1,near,15,80,0,8,0.993017782999232,FALSE,FALSE
S53,simple,1,near,1,near,16,90,1,9,0.754731964998427,FALSE,FALSE
S53,simple,1,near,1,near,17,80,0,10,1.19142676900083,FALSE,FALSE
S53,simple,1,near,1,near,18,90,1,11,0.90935028399872,FALSE,FALSE
S53,simple,1,near,1,near,19,80,1,0,1.50430663899897,FALSE,FALSE
S53,simple,1,near,1,near,20,70,0,12,0.995587731998967,FALSE,FALSE
S53,simple,2,far,1,far,1,220,1,0,0.845148546999553,FALSE,FALSE
S53,simple,2,far,1,far,2,200,1,0,0.771768765998786,FALSE,FALSE
S53,simple,2,far,1,far,3,180,1,0,0.722208326000327,FALSE,FALSE
S53,simple,2,far,1,far,4,160,1,0,0.680326874000457,FALSE,FALSE
S53,simple,2,far,1,far,5,140,1,0,1.2559902640005,FALSE,FALSE
S53,simple,2,far,1,far,6,120,1,0,2.93276207099916,FALSE,FALSE
S53,simple,2,far,1,far,7,100,0,1,0.809024361000411,FALSE,FALSE
S53,simple,2,far,1,far,8,120,0,0,0.907203882999966,FALSE,FALSE
S53,simple,2,far,1,far,9,140,1,2,1.11347559500064,FALSE,FALSE
S53,simple,2,far,1,far,10,120,0,3,2.48466691800058,FALSE,FALSE
S53,simple,2,far,1,far,11,130,1,4,0.68343214900051,FALSE,FALSE
S53,simple,2,far,1,far,12,120,0,5,2.61299640600009,FALSE,FALSE
S53,simple,2,far,1,far,13,130,1,6,0.562699400999918,FALSE,FALSE
S53,simple,2,far,1,far,14,120,1,0,0.761221452001337,FALSE,FALSE
S53,simple,2,far,1,far,15,110,0,7,1.55419648399948,FALSE,FALSE
S53,simple,2,far,1,far,16,120,0,0,0.882209424000393,FALSE,FALSE
S53,simple,2,far,1,far,17,130,0,0,0.889274490999014,FALSE,FALSE
S53,simple,2,far,1,far,18,140,1,8,1.34075454400045,FALSE,FALSE
S53,simple,2,far,1,far,19,130,1,0,1.62345559300047,FALSE,FALSE
S53,simple,2,far,1,far,20,120,0,9,0.87092317399947194,FALSE,FALSE
S53,simple,2,far,1,far,21,130,0,0,0.940772314999776,FALSE,FALSE
S53,simple,2,far,1,far,22,140,0,0,1.29483108999921,FALSE,FALSE
S53,simple,2,far,1,far,23,150,1,10,1.71384206399853,FALSE,FALSE
S53,simple,2,far,1,far,24,140,1,0,0.882134114999644,FALSE,FALSE
S53,simple,2,far,1,far,25,130,1,0,2.23638034199939,FALSE,FALSE
S53,simple,2,far,1,far,26,120,0,11,0.903212451001309,FALSE,FALSE
S53,simple,2,far,1,far,27,130,0,0,1.96064619500066,FALSE,FALSE
S53,simple,2,far,1,far,28,140,0,0,2.99464639700091,TRUE,FALSE
S53,simple,2,far,1,far,29,150,0,0,1.13274111400096,FALSE,FALSE
S53,simple,2,far,1,far,30,160,1,12,0.742306011999972,FALSE,FALSE
S53,simple,3,far,1,far,1,220,1,0,0.657392522000009,FALSE,FALSE
S53,simple,3,far,1,far,2,200,1,0,0.664154587999292,FALSE,FALSE
S53,simple,3,far,1,far,3,180,1,0,0.965672062000522,FALSE,FALSE
S53,simple,3,far,1,far,4,160,1,0,0.851583699999537,FALSE,FALSE
S53,simple,3,far,1,far,5,140,0,1,1.23693972900037,FALSE,FALSE
S53,simple,3,far,1,far,6,160,0,0,2.52747171699957,FALSE,FALSE
S53,simple,3,far,1,far,7,180,1,2,1.18038198800059,FALSE,FALSE
S53,simple,3,far,1,far,8,160,0,3,2.66514866299985,FALSE,FALSE
S53,simple,3,far,1,far,9,170,0,0,2.76865802199973,FALSE,FALSE
S53,simple,3,far,1,far,10,180,0,0,3.49030516499988,FALSE,FALSE
S53,simple,3,far,1,far,11,190,1,4,2.37655600700054,FALSE,FALSE
S53,simple,3,far,1,far,12,180,1,0,1.13037691699901,FALSE,FALSE
S53,simple,3,far,1,far,13,170,1,0,2.9114282520004102,FALSE,FALSE
S53,simple,3,far,1,far,14,160,1,0,2.31887279800139,FALSE,FALSE
S53,simple,3,far,1,far,15,150,0,5,2.11240429200006,FALSE,FALSE
S53,simple,3,far,1,far,16,160,0,0,3.67020365299868,FALSE,FALSE
S53,simple,3,far,1,far,17,170,1,6,1.50005152599988,FALSE,FALSE
S53,simple,3,far,1,far,18,160,1,0,1.769390079,FALSE,FALSE
S53,simple,3,far,1,far,19,150,1,0,2.69936176900046,FALSE,FALSE
S53,simple,3,far,1,far,20,140,0,7,1.90342135899846,FALSE,FALSE
S53,simple,3,far,1,far,21,150,0,0,1.36483017799947,FALSE,FALSE
S53,simple,3,far,1,far,22,160,0,0,2.69562110200059,FALSE,FALSE
S53,simple,3,far,1,far,23,170,0,0,1.31305775200053,FALSE,FALSE
S53,simple,3,far,1,far,24,180,1,8,0.739834826999868,FALSE,FALSE
S53,simple,3,far,1,far,25,170,1,0,0.516583943999649,FALSE,FALSE
S53,simple,3,far,1,far,26,160,1,0,0.692926790999991,FALSE,FALSE
S53,simple,3,far,1,far,27,150,1,0,0.688367957000082,TRUE,FALSE
S53,simple,3,far,1,far,28,140,1,0,0.792815921999136,FALSE,FALSE
S53,simple,3,far,1,far,29,130,0,9,1.22985936100122,FALSE,FALSE
S53,simple,3,far,1,far,30,140,0,0,1.37638951299959,FALSE,FALSE
S53,simple,3,far,1,far,31,150,0,0,1.53193187099896,FALSE,FALSE
S53,simple,3,far,1,far,32,160,0,0,2.03806154499944,FALSE,FALSE
S53,simple,3,far,1,far,33,170,0,0,3.16594039499978,FALSE,FALSE
S53,simple,3,far,1,far,34,180,0,0,3.27636468399942,FALSE,FALSE
S53,simple,3,far,1,far,35,190,1,10,1.16964101899976,FALSE,FALSE
S53,simple,3,far,1,far,36,180,1,0,2.9791767379993,FALSE,FALSE
S53,simple,3,far,1,far,37,170,1,0,0.622225832999902,FALSE,FALSE
S53,simple,3,far,1,far,38,160,1,0,0.667501189000177,FALSE,FALSE
S53,simple,3,far,1,far,39,150,1,0,3.56022533599935,FALSE,FALSE
S53,simple,3,far,1,far,40,140,0,11,3.09107170400057,TRUE,FALSE
S53,simple,3,far,1,far,41,150,0,0,1.78095435100113,FALSE,FALSE
S53,simple,3,far,1,far,42,160,1,12,0.969507361000069,FALSE,FALSE
S53,simple,4,near,1,near,1,20,0,0,2.02541378900059,FALSE,FALSE
S53,simple,4,near,1,near,2,40,0,0,1.33220803099903,FALSE,FALSE
S53,simple,4,near,1,near,3,60,0,0,1.29879338399951,FALSE,FALSE
S53,simple,4,near,1,near,4,80,0,0,2.09646687500026,TRUE,FALSE
S53,simple,4,near,1,near,5,100,1,1,3.05373985099868,FALSE,FALSE
S53,simple,4,near,1,near,6,80,0,2,1.23016238300079,FALSE,FALSE
S53,simple,4,near,1,near,7,100,1,3,2.71208919300079,FALSE,FALSE
S53,simple,4,near,1,near,8,90,1,0,1.94939825500114,FALSE,FALSE
S53,simple,4,near,1,near,9,80,0,4,0.892067126000256,FALSE,FALSE
S53,simple,4,near,1,near,10,90,1,5,1.48152506100087,FALSE,FALSE
S53,simple,4,near,1,near,11,80,0,6,1.04641642100069,FALSE,FALSE
S53,simple,4,near,1,near,12,90,0,0,2.15014014199915,FALSE,FALSE
S53,simple,4,near,1,near,13,100,1,7,1.98691947399857,FALSE,FALSE
S53,simple,4,near,1,near,14,90,0,8,1.99744451900006,FALSE,FALSE
S53,simple,4,near,1,near,15,100,1,9,1.98504306799987,FALSE,FALSE
S53,simple,4,near,1,near,16,90,0,10,1.64027773799899,FALSE,FALSE
S53,simple,4,near,1,near,17,100,1,11,0.952949491998879,FALSE,FALSE
S53,simple,4,near,1,near,18,90,0,12,1.10957690699979,FALSE,FALSE
S54,simple,1,far,1,far,1,220,1,0,1.90950963999967,FALSE,FALSE
S54,simple,1,far,1,far,2,200,1,0,1.02457593799954,FALSE,FALSE
S54,simple,1,far,1,far,3,180,1,0,0.83349425599954,FALSE,FALSE
S54,simple,1,far,1,far,4,160,1,0,0.812714364001295,FALSE,FALSE
S54,simple,1,far,1,far,5,140,0,1,1.44918840499849,FALSE,FALSE
S54,simple,1,far,1,far,6,160,1,2,2.92217602099845,FALSE,FALSE
S54,simple,1,far,1,far,7,140,1,0,2.7365368360006,FALSE,FALSE
S54,simple,1,far,1,far,8,130,0,3,2.51347550399987,FALSE,FALSE
S54,simple,1,far,1,far,9,140,1,4,1.03154980599902,FALSE,FALSE
S54,simple,1,far,1,far,10,130,1,0,2.49058098799833,FALSE,FALSE
S54,simple,1,far,1,far,11,120,0,5,0.906499016999078,FALSE,FALSE
S54,simple,1,far,1,far,12,130,0,0,0.649709239000003,FALSE,FALSE
S54,simple,1,far,1,far,13,140,0,0,2.48008701300023,FALSE,FALSE
S54,simple,1,far,1,far,14,150,1,6,1.74939682300101,FALSE,FALSE
S54,simple,1,far,1,far,15,140,1,0,1.35196332099986,FALSE,FALSE
S54,simple,1,far,1,far,16,130,0,7,1.24074396299875,FALSE,FALSE
S54,simple,1,far,1,far,17,140,0,0,2.82960477400047,FALSE,FALSE
S54,simple,1,far,1,far,18,150,1,8,2.06773821000024,FALSE,FALSE
S54,simple,1,far,1,far,19,140,1,0,1.99445357900004,FALSE,FALSE
S54,simple,1,far,1,far,20,130,1,0,2.79962021500069,FALSE,FALSE
S54,simple,1,far,1,far,21,120,0,9,0.550021394999931,FALSE,FALSE
S54,simple,1,far,1,far,22,130,0,0,1.84331648599982,FALSE,FALSE
S54,simple,1,far,1,far,23,140,0,0,2.59623157500027,FALSE,FALSE
S54,simple,1,far,1,far,24,150,1,10,0.952713945998767,TRUE,FALSE
S54,simple,1,far,1,far,25,140,1,0,2.68506332199831,FALSE,FALSE
S54,simple,1,far,1,far,26,130,1,0,2.21272389499973,FALSE,FALSE
S54,simple,1,far,1,far,27,120,0,11,1.02609360899987,FALSE,FALSE
S54,simple,1,far,1,far,28,130,0,0,1.53392198399888,FALSE,FALSE
S54,simple,1,far,1,far,29,140,1,12,1.3883972170006,FALSE,FALSE
S54,simple,2,far,1,far,1,220,1,0,2.22747172599884,FALSE,FALSE
S54,simple,2,far,1,far,2,200,1,0,1.15440033400046,FALSE,FALSE
S54,simple,2,far,1,far,3,180,1,0,2.4090500809998,FALSE,FALSE
S54,simple,2,far,1,far,4,160,1,0,1.31715373900079,FALSE,FALSE
S54,simple,2,far,1,far,5,140,0,1,0.856953397000325,FALSE,FALSE
S54,simple,2,far,1,far,6,160,1,2,1.86806966200129,FALSE,FALSE
S54,simple,2,far,1,far,7,140,0,3,1.34803839500091,FALSE,FALSE
S54,simple,2,far,1,far,8,150,1,4,1.92068670099979,FALSE,FALSE
S54,simple,2,far,1,far,9,140,0,5,1.80067094200058,FALSE,FALSE
S54,simple,2,far,1,far,10,150,1,6,2.40259004099971,FALSE,FALSE
S54,simple,2,far,1,far,11,140,0,7,2.03962720399977,FALSE,FALSE
S54,simple,2,far,1,far,12,150,1,8,1.76742070700129,FALSE,FALSE
S54,simple,2,far,1,far,13,140,0,9,2.79811374699966,FALSE,FALSE
S54,simple,2,far,1,far,14,150,1,10,2.79638778200024,FALSE,FALSE
S54,simple,2,far,1,far,15,140,0,11,2.38390794500083,FALSE,FALSE
S54,simple,2,far,1,far,16,150,1,12,1.91056946500066,FALSE,FALSE
S54,simple,3,near,1,near,1,20,0,0,0.795349256999543,FALSE,FALSE
S54,simple,3,near,1,near,2,40,0,0,1.03591220499948,FALSE,FALSE
S54,simple,3,near,1,near,3,60,0,0,0.0709153829993738,FALSE,TRUE
S54,simple,3,near,1,near,4,80,0,0,1.01097725699947,FALSE,FALSE
S54,simple,3,near,1,near,5,100,0,0,1.28453410499969,FALSE,FALSE
S54,simple,3,near,1,near,6,120,0,0,1.15320301700012,FALSE,FALSE
S54,simple,3,near,1,near,7,140,1,1,1.30471685200064,FALSE,FALSE
S54,simple,3,near,1,near,8,120,0,2,0.996339225999691,FALSE,FALSE
S54,simple,3,near,1,near,9,140,1,3,1.51764414699937,FALSE,FALSE
S54,simple,3,near,1,near,10,130,0,4,3.02473571200062,FALSE,FALSE
S54,simple,3,near,1,near,11,140,1,5,2.40161499299938,FALSE,FALSE
S54,simple,3,near,1,near,12,130,0,6,1.02225665700098,FALSE,FALSE
S54,simple,3,near,1,near,13,140,1,7,1.57937034300085,FALSE,FALSE
S54,simple,3,near,1,near,14,130,0,8,1.13884695399975,FALSE,FALSE
S54,simple,3,near,1,near,15,140,0,0,3.07151746999989,FALSE,FALSE
S54,simple,3,near,1,near,16,150,0,0,0.0784438090013282,TRUE,TRUE
S54,simple,3,near,1,near,17,160,1,9,0.956420939000964,FALSE,FALSE
S54,simple,3,near,1,near,18,150,1,0,0.929012558000977,FALSE,FALSE
S54,simple,3,near,1,near,19,140,0,10,2.38797600600083,FALSE,FALSE
S54,simple,3,near,1,near,20,150,1,11,1.0609134690003,FALSE,FALSE
S54,simple,3,near,1,near,21,140,1,0,1.63519560500026,FALSE,FALSE
S54,simple,3,near,1,near,22,130,1,0,1.90937515900077,FALSE,FALSE
S54,simple,3,near,1,near,23,120,0,12,0.805561268000019,FALSE,FALSE
S54,simple,4,near,1,near,1,20,1,0,0.84852870100076,FALSE,FALSE
S54,simple,4,near,1,near,2,20,0,1,1.08416282100006,FALSE,FALSE
S54,simple,4,near,1,near,3,40,0,0,1.0187096460013,FALSE,FALSE
S54,simple,4,near,1,near,4,60,0,0,0.887728155999866,FALSE,FALSE
S54,simple,4,near,1,near,5,80,0,0,0.817795384000419,FALSE,FALSE
S54,simple,4,near,1,near,6,100,0,0,1.03920371799904,FALSE,FALSE
S54,simple,4,near,1,near,7,120,0,0,2.49186616299994,FALSE,FALSE
S54,simple,4,near,1,near,8,140,0,0,1.93393912799911,FALSE,FALSE
S54,simple,4,near,1,near,9,160,1,2,1.0502330549989,FALSE,FALSE
S54,simple,4,near,1,near,10,140,1,0,3.61602340599893,FALSE,FALSE
S54,simple,4,near,1,near,11,130,0,3,1.38097663600092,FALSE,FALSE
S54,simple,4,near,1,near,12,140,1,4,0.0611306659993716,TRUE,TRUE
S54,simple,4,near,1,near,13,130,0,5,1.1450673319996,FALSE,FALSE
S54,simple,4,near,1,near,14,140,0,0,2.25681593499939,FALSE,FALSE
S54,simple,4,near,1,near,15,150,1,6,1.4961282080003,FALSE,FALSE
S54,simple,4,near,1,near,16,140,1,0,1.98347786900013,FALSE,FALSE
S54,simple,4,near,1,near,17,130,0,7,2.72857231400121,FALSE,FALSE
S54,simple,4,near,1,near,18,140,1,8,1.01210986900151,FALSE,FALSE
S54,simple,4,near,1,near,19,130,0,9,1.71883227099897,FALSE,FALSE
S54,simple,4,near,1,near,20,140,1,10,0.701769056999183,FALSE,FALSE
S54,simple,4,near,1,near,21,130,0,11,0.80367392900007,FALSE,FALSE
S54,simple,4,near,1,near,22,140,1,12,1.06080937200022,FALSE,FALSE
S55,simple,1,far,1,far,1,220,1,0,1.01152840400027,FALSE,FALSE
S55,simple,1,far,1,far,2,200,1,0,1.31416882399935,FALSE,FALSE
S55,simple,1,far,1,far,3,180,1,0,1.07377015200109,FALSE,FALSE
S55,simple,1,far,1,far,4,160,0,1,1.01932117300021,FALSE,FALSE
S55,simple,1,far,1,far,5,180,0,0,1.02428753799904,FALSE,FALSE
S55,simple,1,far,1,far,6,200,0,0,0.689243218999763,FALSE,FALSE
S55,simple,1,far,1,far,7,220,1,2,1.64914766099901,TRUE,FALSE
S55,simple,1,far,1,far,8,200,1,0,0.600258204001875,FALSE,FALSE
S55,simple,1,far,1,far,9,190,1,0,1.20447078000143,FALSE,FALSE
S55,simple,1,far,1,far,10,180,1,0,1.27910467600304,FALSE,FALSE
S55,simple,1,far,1,far,11,170,1,0,0.663066741002694,TRUE,FALSE
S55,simple,1,far,1,far,12,160,0,3,1.20964847199866,FALSE,FALSE
S55,simple,1,far,1,far,13,170,1,4,1.00630075300069,FALSE,FALSE
S55,simple,1,far,1,far,14,160,1,0,1.68299046500033,FALSE,FALSE
S55,simple,1,far,1,far,15,150,1,0,0.850415038999927,FALSE,FALSE
S55,simple,1,far,1,far,16,140,0,5,1.14629524100019,FALSE,FALSE
S55,simple,1,far,1,far,17,150,0,0,1.23214271799952,TRUE,FALSE
S55,simple,1,far,1,far,18,160,0,0,1.52754950800227,FALSE,FALSE
S55,simple,1,far,1,far,19,170,0,0,1.22736074800196,FALSE,FALSE
S55,simple,1,far,1,far,20,180,1,6,0.751139987998613,FALSE,FALSE
S55,simple,1,far,1,far,21,170,1,0,0.945886932000576,FALSE,FALSE
S55,simple,1,far,1,far,22,160,1,0,1.12596047099942,FALSE,FALSE
S55,simple,1,far,1,far,23,150,0,7,0.948217807002948,FALSE,FALSE
S55,simple,1,far,1,far,24,160,1,8,0.930459189999965,FALSE,FALSE
S55,simple,1,far,1,far,25,150,0,9,0.871083070000168,FALSE,FALSE
S55,simple,1,far,1,far,26,160,0,0,0.91267989699918,FALSE,FALSE
S55,simple,1,far,1,far,27,170,1,10,1.49533951999911,FALSE,FALSE
S55,simple,1,far,1,far,28,160,1,0,1.27241761700134,FALSE,FALSE
S55,simple,1,far,1,far,29,150,0,11,0.94913491799889,FALSE,FALSE
S55,simple,1,far,1,far,30,160,1,12,0.80182954200063306,FALSE,FALSE
S55,simple,2,near,1,near,1,20,0,0,1.19388504900053,FALSE,FALSE
S55,simple,2,near,1,near,2,40,0,0,0.975717315999646,FALSE,FALSE
S55,simple,2,near,1,near,3,60,0,0,0.943269333001808,FALSE,FALSE
S55,simple,2,near,1,near,4,80,0,0,0.649253752999357,FALSE,FALSE
S55,simple,2,near,1,near,5,100,1,1,1.27889162399879,FALSE,FALSE
S55,simple,2,near,1,near,6,80,0,2,0.692485381998267,FALSE,FALSE
S55,simple,2,near,1,near,7,100,0,0,0.91995117499755,FALSE,FALSE
S55,simple,2,near,1,near,8,110,0,0,1.10209590600061,FALSE,FALSE
S55,simple,2,near,1,near,9,120,0,0,1.09164960500129,FALSE,FALSE
S55,simple,2,near,1,near,10,130,1,3,1.44521951099887,FALSE,FALSE
S55,simple,2,near,1,near,11,120,0,4,0.761220934997255,FALSE,FALSE
S55,simple,2,near,1,near,12,130,0,0,0.996470854999643,FALSE,FALSE
S55,simple,2,near,1,near,13,140,0,0,1.11116711800059,FALSE,FALSE
S55,simple,2,near,1,near,14,150,1,5,0.955664822002291,FALSE,FALSE
S55,simple,2,near,1,near,15,140,0,6,0.992441556998529,FALSE,FALSE
S55,simple,2,near,1,near,16,150,0,0,1.25139592099731,FALSE,FALSE
S55,simple,2,near,1,near,17,160,1,7,0.902152245998877,FALSE,FALSE
S55,simple,2,near,1,near,18,150,0,8,0.770602820000931,FALSE,FALSE
S55,simple,2,near,1,near,19,160,1,9,1.2505849659974,FALSE,FALSE
S55,simple,2,near,1,near,20,150,0,10,1.25085579300139,FALSE,FALSE
S55,simple,2,near,1,near,21,160,0,0,0.85940742800085,FALSE,FALSE
S55,simple,2,near,1,near,22,170,1,11,1.10052249100045,FALSE,FALSE
S55,simple,2,near,1,near,23,160,0,12,0.622362253001484,FALSE,FALSE
S55,simple,3,far,1,far,1,220,1,0,0.981563271998311,FALSE,FALSE
S55,simple,3,far,1,far,2,200,1,0,0.91542796900103,FALSE,FALSE
S55,simple,3,far,1,far,3,180,0,1,1.31147137500011,FALSE,FALSE
S55,simple,3,far,1,far,4,200,0,0,0.968496288998722,FALSE,FALSE
S55,simple,3,far,1,far,5,220,1,2,0.787308385999495,FALSE,FALSE
S55,simple,3,far,1,far,6,200,1,0,0.654214978003438,FALSE,FALSE
S55,simple,3,far,1,far,7,190,0,3,1.29846967200137,FALSE,FALSE
S55,simple,3,far,1,far,8,200,1,4,1.39961926199976,FALSE,FALSE
S55,simple,3,far,1,far,9,190,0,5,0.687372070999118,FALSE,FALSE
S55,simple,3,far,1,far,10,200,0,0,1.11897269100155,FALSE,FALSE
S55,simple,3,far,1,far,11,210,1,6,0.75591347199952,FALSE,FALSE
S55,simple,3,far,1,far,12,200,0,7,1.92508325100061,FALSE,FALSE
S55,simple,3,far,1,far,13,210,1,8,1.34733817099914,FALSE,FALSE
S55,simple,3,far,1,far,14,200,1,0,1.041139019002,FALSE,FALSE
S55,simple,3,far,1,far,15,190,1,0,1.6743558019989,FALSE,FALSE
S55,simple,3,far,1,far,16,180,1,0,1.40697569300028,FALSE,FALSE
S55,simple,3,far,1,far,17,170,0,9,0.956651546002831,FALSE,FALSE
S55,simple,3,far,1,far,18,180,0,0,0.922881170001347,FALSE,FALSE
S55,simple,3,far,1,far,19,190,1,10,1.45434339900021,FALSE,FALSE
S55,simple,3,far,1,far,20,180,1,0,1.50182939400111,FALSE,FALSE
S55,simple,3,far,1,far,21,170,0,11,1.17892200300048,FALSE,FALSE
S55,simple,3,far,1,far,22,180,0,0,1.35652672599826,FALSE,FALSE
S55,simple,3,far,1,far,23,190,0,0,0.924375047001377,FALSE,FALSE
S55,simple,3,far,1,far,24,200,1,12,0.984826947002148,FALSE,FALSE
S55,simple,4,near,1,near,1,20,0,0,0.892834410999058,FALSE,FALSE
S55,simple,4,near,1,near,2,40,0,0,1.3783881599993,FALSE,FALSE
S55,simple,4,near,1,near,3,60,0,0,0.745830197996838,FALSE,FALSE
S55,simple,4,near,1,near,4,80,0,0,1.64548929999728,FALSE,FALSE
S55,simple,4,near,1,near,5,100,0,0,1.86527053999816,FALSE,FALSE
S55,simple,4,near,1,near,6,120,0,0,0.876126893999754,FALSE,FALSE
S55,simple,4,near,1,near,7,140,1,1,1.00948147899908,FALSE,FALSE
S55,simple,4,near,1,near,8,120,0,2,0.730825451999408,FALSE,FALSE
S55,simple,4,near,1,near,9,140,1,3,0.7542932619981,TRUE,FALSE
S55,simple,4,near,1,near,10,130,0,4,1.10897565100095,FALSE,FALSE
S55,simple,4,near,1,near,11,140,1,5,1.28198283299935,TRUE,FALSE
S55,simple,4,near,1,near,12,130,0,6,1.00682658900041,FALSE,FALSE
S55,simple,4,near,1,near,13,140,0,0,1.05992351799796,FALSE,FALSE
S55,simple,4,near,1,near,14,150,1,7,1.34556706000149,FALSE,FALSE
S55,simple,4,near,1,near,15,140,0,8,1.02475282900195,FALSE,FALSE
S55,simple,4,near,1,near,16,150,0,0,0.723345924998284,FALSE,FALSE
S55,simple,4,near,1,near,17,160,1,9,1.21111864100021,FALSE,FALSE
S55,simple,4,near,1,near,18,150,1,0,1.25038314799895,FALSE,FALSE
S55,simple,4,near,1,near,19,140,0,10,0.790369137001107,TRUE,FALSE
S55,simple,4,near,1,near,20,150,1,11,1.03647978400113,FALSE,FALSE
S55,simple,4,near,1,near,21,140,0,12,0.944824795999011,FALSE,FALSE
S56,simple,1,far,1,far,1,220,1,0,0.612686219999887,FALSE,FALSE
S56,simple,1,far,1,far,2,200,1,0,0.54488751000099,FALSE,FALSE
S56,simple,1,far,1,far,3,180,1,0,0.79009341499841,FALSE,FALSE
S56,simple,1,far,1,far,4,160,1,0,1.10915354600002,FALSE,FALSE
S56,simple,1,far,1,far,5,140,1,0,1.86630574200171,FALSE,FALSE
S56,simple,1,far,1,far,6,120,0,1,0.888162928000384,FALSE,FALSE
S56,simple,1,far,1,far,7,140,0,0,0.662043031999929,FALSE,FALSE
S56,simple,1,far,1,far,8,160,1,2,0.684146057999897,FALSE,FALSE
S56,simple,1,far,1,far,9,140,0,3,1.02417164800136,FALSE,FALSE
S56,simple,1,far,1,far,10,150,1,4,0.635147884997423,FALSE,FALSE
S56,simple,1,far,1,far,11,140,0,5,1.46038807500008,FALSE,FALSE
S56,simple,1,far,1,far,12,150,1,6,0.636108465001598,FALSE,FALSE
S56,simple,1,far,1,far,13,140,0,7,0.949218264002411,FALSE,FALSE
S56,simple,1,far,1,far,14,150,1,8,0.650096225999732,FALSE,FALSE
S56,simple,1,far,1,far,15,140,1,0,1.05009818600229,FALSE,FALSE
S56,simple,1,far,1,far,16,130,0,9,0.798609423000016,FALSE,FALSE
S56,simple,1,far,1,far,17,140,0,0,0.643186195000453,FALSE,FALSE
S56,simple,1,far,1,far,18,150,1,10,0.634442949001823,FALSE,FALSE
S56,simple,1,far,1,far,19,140,1,0,1.04282917000091,FALSE,FALSE
S56,simple,1,far,1,far,20,130,0,11,0.650735034996615,FALSE,FALSE
S56,simple,1,far,1,far,21,140,0,0,0.980796939998982,FALSE,FALSE
S56,simple,1,far,1,far,22,150,1,12,0.649549902002036,FALSE,FALSE
S56,simple,2,near,1,near,1,20,0,0,0.572420941000019,FALSE,FALSE
S56,simple,2,near,1,near,2,40,0,0,0.552207387001545,FALSE,FALSE
S56,simple,2,near,1,near,3,60,0,0,0.668144647999725,FALSE,FALSE
S56,simple,2,near,1,near,4,80,0,0,0.902599580000242,FALSE,FALSE
S56,simple,2,near,1,near,5,100,1,1,0.916217059999326,FALSE,FALSE
S56,simple,2,near,1,near,6,80,0,2,0.69377452900153,FALSE,FALSE
S56,simple,2,near,1,near,7,100,0,0,1.17682381000122,FALSE,FALSE
S56,simple,2,near,1,near,8,110,1,3,0.644050512000831,FALSE,FALSE
S56,simple,2,near,1,near,9,100,0,4,1.14022341700183,FALSE,FALSE
S56,simple,2,near,1,near,10,110,1,5,1.28488609700071,FALSE,FALSE
S56,simple,2,near,1,near,11,100,0,6,0.878499900998577,FALSE,FALSE
S56,simple,2,near,1,near,12,110,1,7,0.859512375998747,FALSE,FALSE
S56,simple,2,near,1,near,13,100,0,8,0.992578237000998,FALSE,FALSE
S56,simple,2,near,1,near,14,110,1,9,0.96918900899982,FALSE,FALSE
S56,simple,2,near,1,near,15,100,0,10,0.962889182999788,FALSE,FALSE
S56,simple,2,near,1,near,16,110,0,0,1.06394096100121,FALSE,FALSE
S56,simple,2,near,1,near,17,120,0,0,0.738180633001321,FALSE,FALSE
S56,simple,2,near,1,near,18,130,1,11,0.474514677000116,FALSE,FALSE
S56,simple,2,near,1,near,19,120,1,0,0.691633171998546,FALSE,FALSE
S56,simple,2,near,1,near,20,110,0,12,0.651207795002847,FALSE,FALSE
S56,simple,3,near,1,near,1,20,0,0,0.546933499997976,FALSE,FALSE
S56,simple,3,near,1,near,2,40,0,0,0.473816349996923,FALSE,FALSE
S56,simple,3,near,1,near,3,60,0,0,0.699489784001344,FALSE,FALSE
S56,simple,3,near,1,near,4,80,0,0,1.27852458199777,FALSE,FALSE
S56,simple,3,near,1,near,5,100,1,1,0.592059776001406,FALSE,FALSE
S56,simple,3,near,1,near,6,80,0,2,0.518175163000706,FALSE,FALSE
S56,simple,3,near,1,near,7,100,0,0,0.612650453000242,FALSE,FALSE
S56,simple,3,near,1,near,8,110,1,3,0.678884801000095,FALSE,FALSE
S56,simple,3,near,1,near,9,100,0,4,1.36274200900152,FALSE,FALSE
S56,simple,3,near,1,near,10,110,1,5,1.6327487210001,FALSE,FALSE
S56,simple,3,near,1,near,11,100,1,0,1.59939891699833,FALSE,FALSE
S56,simple,3,near,1,near,12,90,1,0,0.91880884299826,FALSE,FALSE
S56,simple,3,near,1,near,13,80,1,0,0.797477203999733,FALSE,FALSE
S56,simple,3,near,1,near,14,70,0,6,1.26534935200107,FALSE,FALSE
S56,simple,3,near,1,near,15,80,0,0,0.649091268001939,FALSE,FALSE
S56,simple,3,near,1,near,16,90,0,0,0.749948978998873,FALSE,FALSE
S56,simple,3,near,1,near,17,100,1,7,1.32426056799886,FALSE,FALSE
S56,simple,3,near,1,near,18,90,0,8,0.806272644000273,FALSE,FALSE
S56,simple,3,near,1,near,19,100,0,0,0.705417668999871,FALSE,FALSE
S56,simple,3,near,1,near,20,110,1,9,0.617701190003572,FALSE,FALSE
S56,simple,3,near,1,near,21,100,0,10,0.764704205997987,FALSE,FALSE
S56,simple,3,near,1,near,22,110,1,11,0.960723732001497,FALSE,FALSE
S56,simple,3,near,1,near,23,100,0,12,0.561800512001355,FALSE,FALSE
S56,simple,4,far,1,far,1,220,1,0,0.666547433000233,FALSE,FALSE
S56,simple,4,far,1,far,2,200,1,0,0.628606318998209,FALSE,FALSE
S56,simple,4,far,1,far,3,180,1,0,0.720486270001857,FALSE,FALSE
S56,simple,4,far,1,far,4,160,1,0,0.95802037699832,FALSE,FALSE
S56,simple,4,far,1,far,5,140,0,1,0.556493088999559,FALSE,FALSE
S56,simple,4,far,1,far,6,160,0,0,1.47593136199794,FALSE,FALSE
S56,simple,4,far,1,far,7,180,1,2,0.463899761001812,FALSE,FALSE
S56,simple,4,far,1,far,8,160,1,0,1.09916717300075,FALSE,FALSE
S56,simple,4,far,1,far,9,150,0,3,1.12448446100097,FALSE,FALSE
S56,simple,4,far,1,far,10,160,1,4,0.567251796001074,FALSE,FALSE
S56,simple,4,far,1,far,11,150,1,0,1.26900473099886,FALSE,FALSE
S56,simple,4,far,1,far,12,140,0,5,0.740170217002742,FALSE,FALSE
S56,simple,4,far,1,far,13,150,1,6,0.630460374999529,FALSE,FALSE
S56,simple,4,far,1,far,14,140,0,7,0.724932086002809,FALSE,FALSE
S56,simple,4,far,1,far,15,150,1,8,1.40407281800071,FALSE,FALSE
S56,simple,4,far,1,far,16,140,1,0,0.700810794001882,FALSE,FALSE
S56,simple,4,far,1,far,17,130,1,0,0.696780325997679,FALSE,FALSE
S56,simple,4,far,1,far,18,120,0,9,0.885942574001092,FALSE,FALSE
S56,simple,4,far,1,far,19,130,1,10,1.24903202999849,TRUE,FALSE
S56,simple,4,far,1,far,20,120,0,11,0.703955328997836,FALSE,FALSE
S56,simple,4,far,1,far,21,130,1,12,0.741768367002805,FALSE,FALSE
S57,simple,1,far,1,far,1,220,1,0,1.18617186499978,FALSE,FALSE
S57,simple,1,far,1,far,2,200,1,0,1.17227792399717,FALSE,FALSE
S57,simple,1,far,1,far,3,180,1,0,1.20645773399883,FALSE,FALSE
S57,simple,1,far,1,far,4,160,1,0,1.2536750649997,FALSE,FALSE
S57,simple,1,far,1,far,5,140,1,0,1.11378419500033,FALSE,FALSE
S57,simple,1,far,1,far,6,120,0,1,1.85022019299868,TRUE,TRUE
S57,simple,1,far,1,far,7,140,0,0,2.10626356899957,TRUE,TRUE
S57,simple,1,far,1,far,8,160,1,2,1.02207889199781,FALSE,FALSE
S57,simple,1,far,1,far,9,140,1,0,0.931268132000696,FALSE,FALSE
S57,simple,1,far,1,far,10,130,1,0,1.29157205299998,FALSE,FALSE
S57,simple,1,far,1,far,11,120,0,3,1.17728171700219,FALSE,FALSE
S57,simple,1,far,1,far,12,130,1,4,0.950452889999724,FALSE,FALSE
S57,simple,1,far,1,far,13,120,0,5,1.03790428900174,FALSE,FALSE
S57,simple,1,far,1,far,14,130,1,6,1.26049991699983,FALSE,FALSE
S57,simple,1,far,1,far,15,120,0,7,0.97982162399785,FALSE,FALSE
S57,simple,1,far,1,far,16,130,1,8,1.03854610599956,FALSE,FALSE
S57,simple,1,far,1,far,17,120,1,0,1.49327752000318,FALSE,FALSE
S57,simple,1,far,1,far,18,110,0,9,0.959733002997382,FALSE,FALSE
S57,simple,1,far,1,far,19,120,0,0,1.57509906100313,FALSE,FALSE
S57,simple,1,far,1,far,20,130,1,10,0.94567177099816,FALSE,FALSE
S57,simple,1,far,1,far,21,120,1,0,1.23456254099801,FALSE,FALSE
S57,simple,1,far,1,far,22,110,0,11,0.993340712997451,FALSE,FALSE
S57,simple,1,far,1,far,23,120,0,0,1.24899251800161,FALSE,FALSE
S57,simple,1,far,1,far,24,130,1,12,0.913635782999336,FALSE,FALSE
S57,simple,2,near,1,near,1,20,0,0,0.920637958999578,FALSE,FALSE
S57,simple,2,near,1,near,2,40,0,0,0.820427829999971,FALSE,FALSE
S57,simple,2,near,1,near,3,60,0,0,0.984048875998269,FALSE,FALSE
S57,simple,2,near,1,near,4,80,0,0,1.0677162289976,FALSE,FALSE
S57,simple,2,near,1,near,5,100,1,1,1.13181589699889,FALSE,FALSE
S57,simple,2,near,1,near,6,80,0,2,1.30172210100136,FALSE,FALSE
S57,simple,2,near,1,near,7,100,0,0,1.41051798899935,FALSE,FALSE
S57,simple,2,near,1,near,8,110,1,3,0.923189143002674,FALSE,FALSE
S57,simple,2,near,1,near,9,100,1,0,1.57310306399813,FALSE,FALSE
S57,simple,2,near,1,near,10,90,0,4,1.11536851900019,FALSE,FALSE
S57,simple,2,near,1,near,11,100,1,5,1.6681884239988,FALSE,FALSE
S57,simple,2,near,1,near,12,90,0,6,1.0329199480002,FALSE,FALSE
S57,simple,2,near,1,near,13,100,0,0,0.964527813001041,FALSE,FALSE
S57,simple,2,near,1,near,14,110,0,0,1.35905800000182,FALSE,FALSE
S57,simple,2,near,1,near,15,120,0,0,1.6581533690005,FALSE,FALSE
S57,simple,2,near,1,near,16,130,1,7,0.88114068700088,FALSE,FALSE
S57,simple,2,near,1,near,17,120,1,0,1.31419232600092,FALSE,FALSE
S57,simple,2,near,1,near,18,110,1,0,1.30841311200129,FALSE,FALSE
S57,simple,2,near,1,near,19,100,0,8,1.5219191239994,FALSE,FALSE
S57,simple,2,near,1,near,20,110,0,0,1.0550152600008,FALSE,FALSE
S57,simple,2,near,1,near,21,120,1,9,1.11148013999991,FALSE,FALSE
S57,simple,2,near,1,near,22,110,1,0,1.43783572699977,FALSE,FALSE
S57,simple,2,near,1,near,23,100,0,10,0.983803918999911,FALSE,FALSE
S57,simple,2,near,1,near,24,110,0,0,1.08501384400006,FALSE,FALSE
S57,simple,2,near,1,near,25,120,0,0,1.35709623300136,FALSE,FALSE
S57,simple,2,near,1,near,26,130,1,11,1.46865894899747,FALSE,FALSE
S57,simple,2,near,1,near,27,120,1,0,1.60218277700187,FALSE,FALSE
S57,simple,2,near,1,near,28,110,1,0,1.41726458799894,FALSE,FALSE
S57,simple,2,near,1,near,29,100,1,0,1.37596858499819,FALSE,FALSE
S57,simple,2,near,1,near,30,90,0,12,1.27688771400062,FALSE,FALSE
S57,simple,3,near,1,near,1,20,0,0,0.947611250998307,FALSE,FALSE
S57,simple,3,near,1,near,2,40,0,0,0.96589713999856,FALSE,FALSE
S57,simple,3,near,1,near,3,60,0,0,0.962621236001723,FALSE,FALSE
S57,simple,3,near,1,near,4,80,0,0,1.11466248500074,FALSE,FALSE
S57,simple,3,near,1,near,5,100,1,1,1.02805514299689,FALSE,FALSE
S57,simple,3,near,1,near,6,80,0,2,1.19449204200282,FALSE,FALSE
S57,simple,3,near,1,near,7,100,1,3,0.868525337999017,FALSE,FALSE
S57,simple,3,near,1,near,8,90,1,0,1.04942508700333,FALSE,FALSE
S57,simple,3,near,1,near,9,80,0,4,1.12464016100057,FALSE,FALSE
S57,simple,3,near,1,near,10,90,0,0,1.20652657200117,FALSE,FALSE
S57,simple,3,near,1,near,11,100,0,0,1.47540879799999,FALSE,FALSE
S57,simple,3,near,1,near,12,110,1,5,0.930548427997564,FALSE,FALSE
S57,simple,3,near,1,near,13,100,1,0,1.32125024999914,FALSE,FALSE
S57,simple,3,near,1,near,14,90,1,0,1.35117031799746,FALSE,FALSE
S57,simple,3,near,1,near,15,80,0,6,1.0718055819998,FALSE,FALSE
S57,simple,3,near,1,near,16,90,0,0,1.177376697,FALSE,FALSE
S57,simple,3,near,1,near,17,100,1,7,1.80182369500108,FALSE,FALSE
S57,simple,3,near,1,near,18,90,1,0,1.42962356700082,FALSE,FALSE
S57,simple,3,near,1,near,19,80,0,8,1.68734643900098,TRUE,FALSE
S57,simple,3,near,1,near,20,90,0,0,0.997297986999911,FALSE,FALSE
S57,simple,3,near,1,near,21,100,0,0,1.56253753300189,FALSE,FALSE
S57,simple,3,near,1,near,22,110,1,9,1.02175657599946,FALSE,FALSE
S57,simple,3,near,1,near,23,100,0,10,1.25515885799905,FALSE,FALSE
S57,simple,3,near,1,near,24,110,1,11,0.77706285900058,FALSE,FALSE
S57,simple,3,near,1,near,25,100,1,0,1.00037258700104,FALSE,FALSE
S57,simple,3,near,1,near,26,90,0,12,1.02659991400287,FALSE,FALSE
S57,simple,4,far,1,far,1,220,1,0,0.945335880998755,FALSE,FALSE
S57,simple,4,far,1,far,2,200,1,0,0.902667409998685,FALSE,FALSE
S57,simple,4,far,1,far,3,180,1,0,0.925804607002647,FALSE,FALSE
S57,simple,4,far,1,far,4,160,1,0,1.10407872100041,FALSE,FALSE
S57,simple,4,far,1,far,5,140,1,0,1.05795357299939,FALSE,FALSE
S57,simple,4,far,1,far,6,120,1,0,1.36436167599823,FALSE,FALSE
S57,simple,4,far,1,far,7,100,0,1,1.11423378299878,FALSE,FALSE
S57,simple,4,far,1,far,8,120,1,2,1.36536099299701,FALSE,FALSE
S57,simple,4,far,1,far,9,100,0,3,0.972180000000662,FALSE,FALSE
S57,simple,4,far,1,far,10,110,0,0,1.16466167900217,FALSE,FALSE
S57,simple,4,far,1,far,11,120,0,0,1.13077431999773,FALSE,FALSE
S57,simple,4,far,1,far,12,130,1,4,0.944723592998344,FALSE,FALSE
S57,simple,4,far,1,far,13,120,1,0,1.09269739799856,FALSE,FALSE
S57,simple,4,far,1,far,14,110,1,0,1.22606608099886,FALSE,FALSE
S57,simple,4,far,1,far,15,100,0,5,1.3832865910008,FALSE,FALSE
S57,simple,4,far,1,far,16,110,0,0,1.37522496200108,FALSE,FALSE
S57,simple,4,far,1,far,17,120,1,6,1.18377214800057,FALSE,FALSE
S57,simple,4,far,1,far,18,110,0,7,1.44984683200164,FALSE,FALSE
S57,simple,4,far,1,far,19,120,1,8,1.23348695000095,FALSE,FALSE
S57,simple,4,far,1,far,20,110,1,0,1.16901360500196,FALSE,FALSE
S57,simple,4,far,1,far,21,100,0,9,0.983832883001014,FALSE,FALSE
S57,simple,4,far,1,far,22,110,1,10,1.21123065899883,FALSE,FALSE
S57,simple,4,far,1,far,23,100,1,0,1.67693331300325,FALSE,FALSE
S57,simple,4,far,1,far,24,90,0,11,1.24897637899994,FALSE,FALSE
S57,simple,4,far,1,far,25,100,1,12,1.24885993600037,FALSE,FALSE
S58,simple,1,far,1,far,1,220,1,0,0.737160897999274,FALSE,FALSE
S58,simple,1,far,1,far,2,200,1,0,0.740886858999147,FALSE,FALSE
S58,simple,1,far,1,far,3,180,1,0,0.609942095001315,FALSE,FALSE
S58,simple,1,far,1,far,4,160,1,0,1.50562279899896,TRUE,FALSE
S58,simple,1,far,1,far,5,140,0,1,0.803933822000545,FALSE,FALSE
S58,simple,1,far,1,far,6,160,1,2,0.64169848900201,FALSE,FALSE
S58,simple,1,far,1,far,7,140,0,3,0.667127486998652,FALSE,FALSE
S58,simple,1,far,1,far,8,150,0,0,1.62690285400095,FALSE,FALSE
S58,simple,1,far,1,far,9,160,0,0,0.796181697001884,FALSE,FALSE
S58,simple,1,far,1,far,10,170,1,4,1.01000229499914,FALSE,FALSE
S58,simple,1,far,1,far,11,160,1,0,0.495935844999622,FALSE,FALSE
S58,simple,1,far,1,far,12,150,1,0,0.524898261999624,FALSE,FALSE
S58,simple,1,far,1,far,13,140,1,0,0.399629133000417,TRUE,FALSE
S58,simple,1,far,1,far,14,130,0,5,0.732624546999432,FALSE,FALSE
S58,simple,1,far,1,far,15,140,0,0,0.643253029000334,FALSE,FALSE
S58,simple,1,far,1,far,16,150,1,6,1.16699026400238,FALSE,FALSE
S58,simple,1,far,1,far,17,140,1,0,0.903871620001155,FALSE,FALSE
S58,simple,1,far,1,far,18,130,1,0,1.09373882300133,FALSE,FALSE
S58,simple,1,far,1,far,19,120,0,7,1.32654089399875,FALSE,FALSE
S58,simple,1,far,1,far,20,130,1,8,1.21647752599893,FALSE,FALSE
S58,simple,1,far,1,far,21,120,0,9,0.631270410001889,FALSE,FALSE
S58,simple,1,far,1,far,22,130,1,10,0.923697091999202,FALSE,FALSE
S58,simple,1,far,1,far,23,120,1,0,1.65026794799996,FALSE,FALSE
S58,simple,1,far,1,far,24,110,0,11,2.085747678997,FALSE,FALSE
S58,simple,1,far,1,far,25,120,0,0,2.29366060699977,FALSE,FALSE
S58,simple,1,far,1,far,26,130,1,12,0.582851696999569,FALSE,FALSE
S58,simple,2,near,1,near,1,20,0,0,0.643543307000073,FALSE,FALSE
S58,simple,2,near,1,near,2,40,0,0,0.659055586002069,FALSE,FALSE
S58,simple,2,near,1,near,3,60,0,0,0.535187190002034,FALSE,FALSE
S58,simple,2,near,1,near,4,80,0,0,0.597899074000452,FALSE,FALSE
S58,simple,2,near,1,near,5,100,0,0,0.980996998001501,FALSE,FALSE
S58,simple,2,near,1,near,6,120,1,1,0.455118583002331,FALSE,FALSE
S58,simple,2,near,1,near,7,100,1,0,0.614335157999449,FALSE,FALSE
S58,simple,2,near,1,near,8,80,0,2,0.553773730996909,FALSE,FALSE
S58,simple,2,near,1,near,9,100,0,0,0.729393115001585,FALSE,FALSE
S58,simple,2,near,1,near,10,110,1,3,3.14761935500064,FALSE,TRUE
S58,simple,2,near,1,near,11,100,0,4,1.00201582900263,FALSE,FALSE
S58,simple,2,near,1,near,12,110,0,0,3.44319325999822,FALSE,TRUE
S58,simple,2,near,1,near,13,120,0,0,0.909851406999223,FALSE,FALSE
S58,simple,2,near,1,near,14,130,1,5,1.06688501299868,FALSE,FALSE
S58,simple,2,near,1,near,15,120,0,6,0.972185156999331,FALSE,FALSE
S58,simple,2,near,1,near,16,130,1,7,0.665658655001607,FALSE,FALSE
S58,simple,2,near,1,near,17,120,0,8,0.795811738000339,FALSE,FALSE
S58,simple,2,near,1,near,18,130,0,0,1.92802509299872,FALSE,FALSE
S58,simple,2,near,1,near,19,140,0,0,1.14605897400179,FALSE,FALSE
S58,simple,2,near,1,near,20,150,1,9,0.488231262999761,FALSE,FALSE
S58,simple,2,near,1,near,21,140,1,0,1.33761864700136,FALSE,FALSE
S58,simple,2,near,1,near,22,130,0,10,1.46984907300066,FALSE,FALSE
S58,simple,2,near,1,near,23,140,0,0,0.783574671000679,FALSE,FALSE
S58,simple,2,near,1,near,24,150,1,11,0.836690709998948,FALSE,FALSE
S58,simple,2,near,1,near,25,140,1,0,0.620385920999979,FALSE,FALSE
S58,simple,2,near,1,near,26,130,1,0,1.83518684799856,FALSE,FALSE
S58,simple,2,near,1,near,27,120,0,12,1.14003442899775,FALSE,FALSE
S58,simple,3,far,1,far,1,220,1,0,0.713053075000062,FALSE,FALSE
S58,simple,3,far,1,far,2,200,1,0,0.591638980997232,FALSE,FALSE
S58,simple,3,far,1,far,3,180,1,0,1.03380577400094,FALSE,FALSE
S58,simple,3,far,1,far,4,160,1,0,1.13708276699981,FALSE,FALSE
S58,simple,3,far,1,far,5,140,1,0,0.614013357000658,FALSE,FALSE
S58,simple,3,far,1,far,6,120,0,1,0.575430062999658,FALSE,FALSE
S58,simple,3,far,1,far,7,140,0,0,0.584004025997274,FALSE,FALSE
S58,simple,3,far,1,far,8,160,0,0,0.71635935300219,FALSE,FALSE
S58,simple,3,far,1,far,9,180,1,2,1.0303593130011,FALSE,FALSE
S58,simple,3,far,1,far,10,160,1,0,0.818845392001094,FALSE,FALSE
S58,simple,3,far,1,far,11,150,1,0,0.791527124998538,FALSE,FALSE
S58,simple,3,far,1,far,12,140,1,0,4.00498189300197,TRUE,TRUE
S58,simple,3,far,1,far,13,130,1,0,0.889234873997339,FALSE,FALSE
S58,simple,3,far,1,far,14,120,0,3,0.584747304998018,FALSE,FALSE
S58,simple,3,far,1,far,15,130,0,0,0.627605252000649,FALSE,FALSE
S58,simple,3,far,1,far,16,140,0,0,0.665896241000155,FALSE,FALSE
S58,simple,3,far,1,far,17,150,0,0,0.539705982999294,FALSE,FALSE
S58,simple,3,far,1,far,18,160,1,4,0.602291368999431,FALSE,FALSE
S58,simple,3,far,1,far,19,150,1,0,0.824193827000272,FALSE,FALSE
S58,simple,3,far,1,far,20,140,1,0,0.556918148999102,FALSE,FALSE
S58,simple,3,far,1,far,21,130,1,0,0.492522444001224,FALSE,FALSE
S58,simple,3,far,1,far,22,120,1,0,0.638128424001479,FALSE,FALSE
S58,simple,3,far,1,far,23,110,0,5,1.2997013460008,FALSE,FALSE
S58,simple,3,far,1,far,24,120,1,6,0.593677303997538,FALSE,FALSE
S58,simple,3,far,1,far,25,110,1,0,1.57466126700092,FALSE,FALSE
S58,simple,3,far,1,far,26,100,0,7,0.60108596200007,FALSE,FALSE
S58,simple,3,far,1,far,27,110,0,0,0.520748814997205,FALSE,FALSE
S58,simple,3,far,1,far,28,120,1,8,0.894435351001448,FALSE,FALSE
S58,simple,3,far,1,far,29,110,1,0,1.47296440699938,FALSE,FALSE
S58,simple,3,far,1,far,30,100,0,9,0.718396948999725,FALSE,FALSE
S58,simple,3,far,1,far,31,110,1,10,1.04225302299892,FALSE,FALSE
S58,simple,3,far,1,far,32,100,1,0,2.50471666199883,TRUE,TRUE
S58,simple,3,far,1,far,33,90,0,11,0.658066391999455,FALSE,FALSE
S58,simple,3,far,1,far,34,100,0,0,0.754998986998544,FALSE,FALSE
S58,simple,3,far,1,far,35,110,1,12,0.555041073999746,FALSE,FALSE
S58,simple,4,near,1,near,1,20,0,0,0.565846194000187,FALSE,FALSE
S58,simple,4,near,1,near,2,40,0,0,0.432840691999445,FALSE,FALSE
S58,simple,4,near,1,near,3,60,0,0,0.485726931001409,FALSE,FALSE
S58,simple,4,near,1,near,4,80,0,0,0.701574351998715,FALSE,FALSE
S58,simple,4,near,1,near,5,100,0,0,1.07506017900232,FALSE,FALSE
S58,simple,4,near,1,near,6,120,1,1,0.500090371999249,FALSE,FALSE
S58,simple,4,near,1,near,7,100,1,0,0.575203551001323,FALSE,FALSE
S58,simple,4,near,1,near,8,80,0,2,1.0611760110005,FALSE,FALSE
S58,simple,4,near,1,near,9,100,1,3,2.01435663599841,TRUE,FALSE
S58,simple,4,near,1,near,10,90,0,4,0.994990570998198,FALSE,FALSE
S58,simple,4,near,1,near,11,100,1,5,1.78275668499919,FALSE,FALSE
S58,simple,4,near,1,near,12,90,0,6,0.960291708001023,FALSE,FALSE
S58,simple,4,near,1,near,13,100,0,0,0.935685006003041,FALSE,FALSE
S58,simple,4,near,1,near,14,110,0,0,1.17243482399863,FALSE,FALSE
S58,simple,4,near,1,near,15,120,0,0,0.941020505000779,FALSE,FALSE
S58,simple,4,near,1,near,16,130,1,7,0.524027233001107,FALSE,FALSE
S58,simple,4,near,1,near,17,120,0,8,0.640300682000088,FALSE,FALSE
S58,simple,4,near,1,near,18,130,1,9,0.674250688000029,FALSE,FALSE
S58,simple,4,near,1,near,19,120,1,0,0.862313139001344,FALSE,FALSE
S58,simple,4,near,1,near,20,110,0,10,0.620150961000036,FALSE,FALSE
S58,simple,4,near,1,near,21,120,0,0,1.24644049400013,FALSE,FALSE
S58,simple,4,near,1,near,22,130,0,0,1.80240233999939,FALSE,FALSE
S58,simple,4,near,1,near,23,140,1,11,0.632225697998365,FALSE,FALSE
S58,simple,4,near,1,near,24,130,1,0,1.13098173299659,FALSE,FALSE
S58,simple,4,near,1,near,25,120,0,12,0.782138325001142,FALSE,FALSE
S59,simple,1,far,1,far,1,220,1,0,1.55167859799985,FALSE,FALSE
S59,simple,1,far,1,far,2,200,1,0,1.56634543999826,FALSE,FALSE
S59,simple,1,far,1,far,3,180,1,0,1.62263903699932,FALSE,FALSE
S59,simple,1,far,1,far,4,160,0,1,1.59986613100045,FALSE,FALSE
S59,simple,1,far,1,far,5,180,1,2,1.57224062499881,FALSE,FALSE
S59,simple,1,far,1,far,6,160,0,3,1.59811321600137,FALSE,FALSE
S59,simple,1,far,1,far,7,170,0,0,1.45911215199885,FALSE,FALSE
S59,simple,1,far,1,far,8,180,1,4,2.22535293599503,TRUE,TRUE
S59,simple,1,far,1,far,9,170,0,5,1.38099039199733,FALSE,FALSE
S59,simple,1,far,1,far,10,180,0,0,1.18047467500583,FALSE,FALSE
S59,simple,1,far,1,far,11,190,1,6,2.0717363099975,TRUE,FALSE
S59,simple,1,far,1,far,12,180,0,7,1.6203845400014,FALSE,FALSE
S59,simple,1,far,1,far,13,190,0,0,1.47793529099727,FALSE,FALSE
S59,simple,1,far,1,far,14,200,1,8,2.00653074400179,FALSE,FALSE
S59,simple,1,far,1,far,15,190,0,9,1.43978734999837,FALSE,FALSE
S59,simple,1,far,1,far,16,200,1,10,1.71085992299777,FALSE,FALSE
S59,simple,1,far,1,far,17,190,0,11,1.32176338700083,FALSE,FALSE
S59,simple,1,far,1,far,18,200,0,0,1.38462550300028,FALSE,FALSE
S59,simple,1,far,1,far,19,210,1,12,1.41907607099711,FALSE,FALSE
S59,simple,2,far,1,far,1,220,1,0,1.76163304199872,FALSE,FALSE
S59,simple,2,far,1,far,2,200,1,0,1.80779596500361,FALSE,FALSE
S59,simple,2,far,1,far,3,180,0,1,1.3397423139977,FALSE,FALSE
S59,simple,2,far,1,far,4,200,0,0,1.49319952099904,FALSE,FALSE
S59,simple,2,far,1,far,5,220,1,2,1.97380137599976,FALSE,FALSE
S59,simple,2,far,1,far,6,200,1,0,1.61925012400025,FALSE,FALSE
S59,simple,2,far,1,far,7,190,0,3,1.1248888629998,TRUE,FALSE
S59,simple,2,far,1,far,8,200,0,0,1.38218270499783,FALSE,FALSE
S59,simple,2,far,1,far,9,210,1,4,1.51790530700237,FALSE,FALSE
S59,simple,2,far,1,far,10,200,1,0,0.950191648997134,TRUE,TRUE
S59,simple,2,far,1,far,11,190,0,5,1.42580789799831,FALSE,FALSE
S59,simple,2,far,1,far,12,200,0,0,1.63475307199406,FALSE,FALSE
S59,simple,2,far,1,far,13,210,0,0,1.48243684400222,FALSE,FALSE
S59,simple,2,far,1,far,14,220,1,6,1.63237813900196,FALSE,FALSE
S59,simple,2,far,1,far,15,210,0,7,1.66449129200191,FALSE,FALSE
S59,simple,2,far,1,far,16,220,0,0,1.46235090499977,FALSE,FALSE
S59,simple,2,far,1,far,17,220,0,0,0.9272157910018,FALSE,TRUE
S59,simple,2,far,1,far,18,220,0,0,1.25733762500022,FALSE,FALSE
S59,simple,2,far,1,far,19,220,1,8,1.22391842999787,FALSE,FALSE
S59,simple,2,far,1,far,20,210,0,9,1.67739944300411,FALSE,FALSE
S59,simple,2,far,1,far,21,220,1,10,1.93805164300284,FALSE,FALSE
S59,simple,2,far,1,far,22,210,0,11,1.1738459489934,TRUE,FALSE
S59,simple,2,far,1,far,23,220,1,12,1.78985321200162,FALSE,FALSE
S59,simple,3,near,1,near,1,20,0,0,1.18692170999566,FALSE,FALSE
S59,simple,3,near,1,near,2,40,0,0,1.41221425600088,FALSE,FALSE
S59,simple,3,near,1,near,3,60,0,0,1.36665317599545,FALSE,FALSE
S59,simple,3,near,1,near,4,80,0,0,1.55701614799909,FALSE,FALSE
S59,simple,3,near,1,near,5,100,1,1,1.76808451900433,FALSE,FALSE
S59,simple,3,near,1,near,6,80,0,2,1.47861656500027,FALSE,FALSE
S59,simple,3,near,1,near,7,100,1,3,1.38240699499875,FALSE,FALSE
S59,simple,3,near,1,near,8,90,0,4,1.03417539899965,FALSE,FALSE
S59,simple,3,near,1,near,9,100,1,5,1.63803362300678,FALSE,FALSE
S59,simple,3,near,1,near,10,90,0,6,0.943030663001991,FALSE,FALSE
S59,simple,3,near,1,near,11,100,1,7,1.26622491000307,FALSE,FALSE
S59,simple,3,near,1,near,12,90,0,8,1.19298426400201,FALSE,FALSE
S59,simple,3,near,1,near,13,100,1,9,1.46230973999627,FALSE,FALSE
S59,simple,3,near,1,near,14,90,0,10,1.10999385899777,FALSE,FALSE
S59,simple,3,near,1,near,15,100,1,11,1.62503460899461,FALSE,FALSE
S59,simple,3,near,1,near,16,90,0,12,1.04190585300239,FALSE,FALSE
S59,simple,4,near,1,near,1,20,0,0,0.903129162004916,FALSE,FALSE
S59,simple,4,near,1,near,2,40,0,0,0.937680921997526,FALSE,FALSE
S59,simple,4,near,1,near,3,60,0,0,0.977306695996958,FALSE,FALSE
S59,simple,4,near,1,near,4,80,0,0,1.03923881099763,FALSE,FALSE
S59,simple,4,near,1,near,5,100,0,0,1.85326296899439,FALSE,FALSE
S59,simple,4,near,1,near,6,120,1,1,1.14717169099458,FALSE,FALSE
S59,simple,4,near,1,near,7,100,0,2,1.19734281599813,FALSE,FALSE
S59,simple,4,near,1,near,8,120,1,3,1.08212839699991,FALSE,FALSE
S59,simple,4,near,1,near,9,110,0,4,1.11554031800188,FALSE,FALSE
S59,simple,4,near,1,near,10,120,1,5,0.926456413006235,TRUE,FALSE
S59,simple,4,near,1,near,11,110,1,0,1.2469492060045,FALSE,FALSE
S59,simple,4,near,1,near,12,100,0,6,1.32183657199494,FALSE,FALSE
S59,simple,4,near,1,near,13,110,0,0,1.16635844999837,FALSE,FALSE
S59,simple,4,near,1,near,14,120,1,7,1.0887954419959,FALSE,FALSE
S59,simple,4,near,1,near,15,110,0,8,1.19835145300021,FALSE,FALSE
S59,simple,4,near,1,near,16,120,1,9,1.04996927799948,FALSE,FALSE
S59,simple,4,near,1,near,17,110,0,10,0.889396531005332,TRUE,FALSE
S59,simple,4,near,1,near,18,120,1,11,1.48711217499658,TRUE,FALSE
S59,simple,4,near,1,near,19,110,0,12,1.93803315900004,TRUE,FALSE
S60,simple,1,near,1,near,1,20,0,0,0.966504604000079,FALSE,FALSE
S60,simple,1,near,1,near,2,40,0,0,0.678772544000026,FALSE,FALSE
S60,simple,1,near,1,near,3,60,0,0,0.831373166999924,FALSE,FALSE
S60,simple,1,near,1,near,4,80,0,0,0.983490843000027,FALSE,FALSE
S60,simple,1,near,1,near,5,100,0,0,1.16252254200003,FALSE,FALSE
S60,simple,1,near,1,near,6,120,0,0,1.19826283400005,FALSE,FALSE
S60,simple,1,near,1,near,7,140,1,1,0.901712340000017,FALSE,FALSE
S60,simple,1,near,1,near,8,120,1,0,1.500858634,FALSE,FALSE
S60,simple,1,near,1,near,9,100,0,2,1.12040230299999,FALSE,FALSE
S60,simple,1,near,1,near,10,120,1,3,1.17411320000008,FALSE,FALSE
S60,simple,1,near,1,near,11,110,1,0,0.893307369000013,FALSE,FALSE
S60,simple,1,near,1,near,12,100,1,0,7.85139077600002,TRUE,TRUE
S60,simple,1,near,1,near,13,90,0,4,0.845909393999932,FALSE,FALSE
S60,simple,1,near,1,near,14,100,0,0,0.847653529000013,FALSE,FALSE
S60,simple,1,near,1,near,15,110,0,0,1.05105187599997,FALSE,FALSE
S60,simple,1,near,1,near,16,120,1,5,1.21400366900002,FALSE,FALSE
S60,simple,1,near,1,near,17,110,1,0,1.41659442800005,FALSE,FALSE
S60,simple,1,near,1,near,18,100,0,6,1.50884838899992,FALSE,FALSE
S60,simple,1,near,1,near,19,110,0,0,1.0411052369999,FALSE,FALSE
S60,simple,1,near,1,near,20,120,1,7,1.19947455800002,FALSE,FALSE
S60,simple,1,near,1,near,21,110,1,0,0.933963283000026,FALSE,FALSE
S60,simple,1,near,1,near,22,100,0,8,1.44335068999999,FALSE,FALSE
S60,simple,1,near,1,near,23,110,1,9,1.53144545600003,FALSE,FALSE
S60,simple,1,near,1,near,24,100,1,0,0.8672940350001,FALSE,FALSE
S60,simple,1,near,1,near,25,90,0,10,0.724716429999944,FALSE,FALSE
S60,simple,1,near,1,near,26,100,0,0,1.22900859600009,FALSE,FALSE
S60,simple,1,near,1,near,27,110,0,0,0.896559890000162,FALSE,FALSE
S60,simple,1,near,1,near,28,120,0,0,0.921238482000035,FALSE,FALSE
S60,simple,1,near,1,near,29,130,1,11,0.691482879999967,FALSE,FALSE
S60,simple,1,near,1,near,30,120,1,0,0.810699169999907,FALSE,FALSE
S60,simple,1,near,1,near,31,110,1,0,0.715880739999875,FALSE,FALSE
S60,simple,1,near,1,near,32,100,1,0,0.478069404000053,FALSE,FALSE
S60,simple,1,near,1,near,33,90,0,12,0.730638964000036,FALSE,FALSE
S60,simple,2,far,1,far,1,220,1,0,1.05083775899993,FALSE,FALSE
S60,simple,2,far,1,far,2,200,1,0,0.578557554999861,FALSE,FALSE
S60,simple,2,far,1,far,3,180,1,0,0.575591985000074,FALSE,FALSE
S60,simple,2,far,1,far,4,160,1,0,0.509281535999889,FALSE,FALSE
S60,simple,2,far,1,far,5,140,0,1,1.12314440299997,FALSE,FALSE
S60,simple,2,far,1,far,6,160,1,2,0.939334504000044,FALSE,FALSE
S60,simple,2,far,1,far,7,140,1,0,0.97994676899998,FALSE,FALSE
S60,simple,2,far,1,far,8,130,0,3,0.667473723000057,FALSE,FALSE
S60,simple,2,far,1,far,9,140,0,0,0.588914770999963,FALSE,FALSE
S60,simple,2,far,1,far,10,150,0,0,0.867792528000109,FALSE,FALSE
S60,simple,2,far,1,far,11,160,1,4,0.771502865000002,FALSE,FALSE
S60,simple,2,far,1,far,12,150,1,0,0.542310405999842,FALSE,FALSE
S60,simple,2,far,1,far,13,140,0,5,0.868462972000088,FALSE,FALSE
S60,simple,2,far,1,far,14,150,1,6,0.844156670000075,FALSE,FALSE
S60,simple,2,far,1,far,15,140,0,7,0.652716702000134,FALSE,FALSE
S60,simple,2,far,1,far,16,150,0,0,0.685044768000125,FALSE,FALSE
S60,simple,2,far,1,far,17,160,1,8,0.613939414000015,FALSE,FALSE
S60,simple,2,far,1,far,18,150,1,0,0.828415044999929,FALSE,FALSE
S60,simple,2,far,1,far,19,140,0,9,0.615850260000116,FALSE,FALSE
S60,simple,2,far,1,far,20,150,0,0,1.10262525600001,FALSE,FALSE
S60,simple,2,far,1,far,21,160,1,10,0.940843525999981,FALSE,FALSE
S60,simple,2,far,1,far,22,150,0,11,0.961895817000141,FALSE,FALSE
S60,simple,2,far,1,far,23,160,1,12,0.989506616000199,FALSE,FALSE
S60,simple,3,far,1,far,1,220,1,0,0.690982920000124,FALSE,FALSE
S60,simple,3,far,1,far,2,200,1,0,0.830736036999951,FALSE,FALSE
S60,simple,3,far,1,far,3,180,1,0,0.649218313999882,FALSE,FALSE
S60,simple,3,far,1,far,4,160,1,0,0.877575209000042,FALSE,FALSE
S60,simple,3,far,1,far,5,140,1,0,0.904324749000125,FALSE,FALSE
S60,simple,3,far,1,far,6,120,0,1,0.532001764000142,FALSE,FALSE
S60,simple,3,far,1,far,7,140,0,0,0.613247385000022,FALSE,FALSE
S60,simple,3,far,1,far,8,160,0,0,0.992580165999925,FALSE,FALSE
S60,simple,3,far,1,far,9,180,1,2,0.521807441000192,FALSE,FALSE
S60,simple,3,far,1,far,10,160,1,0,0.494957002000092,FALSE,FALSE
S60,simple,3,far,1,far,11,150,1,0,0.988451493999946,FALSE,FALSE
S60,simple,3,far,1,far,12,140,0,3,0.893772728000158,FALSE,FALSE
S60,simple,3,far,1,far,13,150,0,0,1.07411418400011,FALSE,FALSE
S60,simple,3,far,1,far,14,160,1,4,0.739641922999908,FALSE,FALSE
S60,simple,3,far,1,far,15,150,1,0,0.81617464299984,FALSE,FALSE
S60,simple,3,far,1,far,16,140,0,5,0.695725691999996,FALSE,FALSE
S60,simple,3,far,1,far,17,150,0,0,0.983179500999995,FALSE,FALSE
S60,simple,3,far,1,far,18,160,0,0,0.901603796000018,FALSE,FALSE
S60,simple,3,far,1,far,19,170,1,6,0.434969180000053,FALSE,FALSE
S60,simple,3,far,1,far,20,160,0,7,0.923139203999881,FALSE,FALSE
S60,simple,3,far,1,far,21,170,1,8,0.674043903999973,FALSE,FALSE
S60,simple,3,far,1,far,22,160,1,0,0.750302497000121,FALSE,FALSE
S60,simple,3,far,1,far,23,150,0,9,0.516755114000034,FALSE,FALSE
S60,simple,3,far,1,far,24,160,1,10,0.581610807999823,FALSE,FALSE
S60,simple,3,far,1,far,25,150,0,11,0.584135758000002,FALSE,FALSE
S60,simple,3,far,1,far,26,160,1,12,0.58405279700014,FALSE,FALSE
S60,simple,4,near,1,near,1,20,0,0,0.714403671999889,FALSE,FALSE
S60,simple,4,near,1,near,2,40,0,0,0.374415244999909,FALSE,FALSE
S60,simple,4,near,1,near,3,60,0,0,0.640563933000067,FALSE,FALSE
S60,simple,4,near,1,near,4,80,0,0,0.347656442000016,FALSE,FALSE
S60,simple,4,near,1,near,5,100,0,0,0.607827701999895,FALSE,FALSE
S60,simple,4,near,1,near,6,120,0,0,0.671785790000058,FALSE,FALSE
S60,simple,4,near,1,near,7,140,0,0,1.30276045799997,FALSE,FALSE
S60,simple,4,near,1,near,8,160,1,1,0.539095289999977,FALSE,FALSE
S60,simple,4,near,1,near,9,140,0,2,0.930057154999986,FALSE,FALSE
S60,simple,4,near,1,near,10,160,1,3,0.430849857000112,TRUE,FALSE
S60,simple,4,near,1,near,11,150,1,0,0.668001577000041,FALSE,FALSE
S60,simple,4,near,1,near,12,140,0,4,0.95555268499993,FALSE,FALSE
S60,simple,4,near,1,near,13,150,1,5,0.537701362000007,FALSE,FALSE
S60,simple,4,near,1,near,14,140,1,0,0.809235345999923,FALSE,FALSE
S60,simple,4,near,1,near,15,130,0,6,0.633821936999993,FALSE,FALSE
S60,simple,4,near,1,near,16,140,1,7,0.686577916000033,FALSE,FALSE
S60,simple,4,near,1,near,17,130,0,8,0.437343031999944,FALSE,FALSE
S60,simple,4,near,1,near,18,140,0,0,0.491838779000091,FALSE,FALSE
S60,simple,4,near,1,near,19,150,0,0,0.500082168000063,FALSE,FALSE
S60,simple,4,near,1,near,20,160,1,9,0.54216448599982,FALSE,FALSE
S60,simple,4,near,1,near,21,150,1,0,0.898716358000001,FALSE,FALSE
S60,simple,4,near,1,near,22,140,1,0,0.424872577999849,FALSE,FALSE
S60,simple,4,near,1,near,23,130,0,10,0.413215813000079,FALSE,FALSE
S60,simple,4,near,1,near,24,140,0,0,0.718971925000005,FALSE,FALSE
S60,simple,4,near,1,near,25,150,0,0,0.949965094999925,FALSE,FALSE
S60,simple,4,near,1,near,26,160,1,11,0.650308589999895,FALSE,FALSE
S60,simple,4,near,1,near,27,150,1,0,0.509840548000057,FALSE,FALSE
S60,simple,4,near,1,near,28,140,0,12,0.581154513000001,FALSE,FALSE
S61,simple,1,near,1,near,1,20,0,0,0.780561696999939,FALSE,FALSE
S61,simple,1,near,1,near,2,40,0,0,0.951903160000256,FALSE,FALSE
S61,simple,1,near,1,near,3,60,0,0,0.993639670999983,FALSE,FALSE
S61,simple,1,near,1,near,4,80,0,0,1.36346029800006,FALSE,FALSE
S61,simple,1,near,1,near,5,100,1,1,0.805379854999956,FALSE,FALSE
S61,simple,1,near,1,near,6,80,0,2,1.54628830399997,FALSE,FALSE
S61,simple,1,near,1,near,7,100,0,0,1.34050048900008,FALSE,FALSE
S61,simple,1,near,1,near,8,110,1,3,0.772882409999511,FALSE,FALSE
S61,simple,1,near,1,near,9,100,1,0,1.44151976100056,FALSE,FALSE
S61,simple,1,near,1,near,10,90,0,4,1.999841973,FALSE,FALSE
S61,simple,1,near,1,near,11,100,1,5,1.50775555600012,FALSE,FALSE
S61,simple,1,near,1,near,12,90,0,6,1.2463274339998,FALSE,FALSE
S61,simple,1,near,1,near,13,100,1,7,1.17558724399987,FALSE,FALSE
S61,simple,1,near,1,near,14,90,0,8,0.78926536400013,FALSE,FALSE
S61,simple,1,near,1,near,15,100,0,0,1.44509877000019,FALSE,FALSE
S61,simple,1,near,1,near,16,110,1,9,0.68801485899985,FALSE,FALSE
S61,simple,1,near,1,near,17,100,1,0,1.96638794400042,FALSE,FALSE
S61,simple,1,near,1,near,18,90,0,10,1.11461412399967,FALSE,FALSE
S61,simple,1,near,1,near,19,100,1,11,1.51567144699948,FALSE,FALSE
S61,simple,1,near,1,near,20,90,0,12,1.70817675000035,FALSE,FALSE
S61,simple,2,far,1,far,1,220,1,0,1.12876742900062,FALSE,FALSE
S61,simple,2,far,1,far,2,200,1,0,1.0347960729996,FALSE,FALSE
S61,simple,2,far,1,far,3,180,1,0,0.951855967000483,FALSE,FALSE
S61,simple,2,far,1,far,4,160,1,0,1.26636969100036,FALSE,FALSE
S61,simple,2,far,1,far,5,140,1,0,1.46886534700025,FALSE,FALSE
S61,simple,2,far,1,far,6,120,1,0,1.84947280100005,FALSE,FALSE
S61,simple,2,far,1,far,7,100,0,1,0.624511877999794,FALSE,FALSE
S61,simple,2,far,1,far,8,120,1,2,1.59412238799996,FALSE,FALSE
S61,simple,2,far,1,far,9,100,0,3,0.829148709000037,FALSE,FALSE
S61,simple,2,far,1,far,10,110,0,0,0.792636404000405,FALSE,FALSE
S61,simple,2,far,1,far,11,120,1,4,1.70526553199943,FALSE,FALSE
S61,simple,2,far,1,far,12,110,0,5,0.929279470999973,FALSE,FALSE
S61,simple,2,far,1,far,13,120,1,6,0.926690078999854,FALSE,FALSE
S61,simple,2,far,1,far,14,110,1,0,2.30177464999997,FALSE,FALSE
S61,simple,2,far,1,far,15,100,0,7,1.11718580300021,FALSE,FALSE
S61,simple,2,far,1,far,16,110,0,0,1.18157975300073,FALSE,FALSE
S61,simple,2,far,1,far,17,120,1,8,1.13755671299987,FALSE,FALSE
S61,simple,2,far,1,far,18,110,0,9,1.04777799899966,FALSE,FALSE
S61,simple,2,far,1,far,19,120,1,10,1.07527825000034,FALSE,FALSE
S61,simple,2,far,1,far,20,110,1,0,1.2947815739999,FALSE,FALSE
S61,simple,2,far,1,far,21,100,0,11,1.13640914999996,FALSE,FALSE
S61,simple,2,far,1,far,22,110,0,0,0.856517119999808,FALSE,FALSE
S61,simple,2,far,1,far,23,120,1,12,1.13458614299998,FALSE,FALSE
S61,simple,3,near,1,near,1,20,0,0,0.675890126000013,FALSE,FALSE
S61,simple,3,near,1,near,2,40,0,0,0.619208923999395,FALSE,FALSE
S61,simple,3,near,1,near,3,60,0,0,0.751103032000174,FALSE,FALSE
S61,simple,3,near,1,near,4,80,0,0,1.22640502899958,FALSE,FALSE
S61,simple,3,near,1,near,5,100,1,1,0.971695211999759,FALSE,FALSE
S61,simple,3,near,1,near,6,80,0,2,1.15727999199953,FALSE,FALSE
S61,simple,3,near,1,near,7,100,1,3,1.06659856199985,FALSE,FALSE
S61,simple,3,near,1,near,8,90,1,0,2.06201901999975,FALSE,FALSE
S61,simple,3,near,1,near,9,80,0,4,1.95486451900069,FALSE,FALSE
S61,simple,3,near,1,near,10,90,0,0,1.3647817330002,FALSE,FALSE
S61,simple,3,near,1,near,11,100,1,5,1.34681763299977,FALSE,FALSE
S61,simple,3,near,1,near,12,90,0,6,1.16720044800059,FALSE,FALSE
S61,simple,3,near,1,near,13,100,1,7,0.805087566000111,FALSE,FALSE
S61,simple,3,near,1,near,14,90,0,8,1.10101050699996,FALSE,FALSE
S61,simple,3,near,1,near,15,100,1,9,0.980590681999274,FALSE,FALSE
S61,simple,3,near,1,near,16,90,0,10,1.58989133000068,FALSE,FALSE
S61,simple,3,near,1,near,17,100,1,11,1.18913779299965,FALSE,FALSE
S61,simple,3,near,1,near,18,90,0,12,1.56172379300006,FALSE,FALSE
S61,simple,4,far,1,far,1,220,1,0,0.784141523000471,FALSE,FALSE
S61,simple,4,far,1,far,2,200,1,0,0.813219001999641,FALSE,FALSE
S61,simple,4,far,1,far,3,180,1,0,0.963259593999283,FALSE,FALSE
S61,simple,4,far,1,far,4,160,1,0,0.963322137999967,FALSE,FALSE
S61,simple,4,far,1,far,5,140,1,0,1.27596789200015,FALSE,FALSE
S61,simple,4,far,1,far,6,120,0,1,2.1847965070001,FALSE,FALSE
S61,simple,4,far,1,far,7,140,1,2,1.56887760300015,FALSE,FALSE
S61,simple,4,far,1,far,8,120,1,0,1.61888301700037,FALSE,FALSE
S61,simple,4,far,1,far,9,110,0,3,1.38837511600013,FALSE,FALSE
S61,simple,4,far,1,far,10,120,1,4,1.52353212299931,FALSE,FALSE
S61,simple,4,far,1,far,11,110,1,0,1.79291051499968,FALSE,FALSE
S61,simple,4,far,1,far,12,100,0,5,1.92505521300063,FALSE,FALSE
S61,simple,4,far,1,far,13,110,1,6,0.911860952000097,FALSE,FALSE
S61,simple,4,far,1,far,14,100,1,0,1.87665115299933,FALSE,FALSE
S61,simple,4,far,1,far,15,90,0,7,1.19099965500027,FALSE,FALSE
S61,simple,4,far,1,far,16,100,0,0,1.41321570999935,FALSE,FALSE
S61,simple,4,far,1,far,17,110,1,8,1.93065658700016,FALSE,FALSE
S61,simple,4,far,1,far,18,100,0,9,1.05236635999972,FALSE,FALSE
S61,simple,4,far,1,far,19,110,0,0,1.9512595189999,FALSE,FALSE
S61,simple,4,far,1,far,20,120,1,10,0.849983463999706,FALSE,FALSE
S61,simple,4,far,1,far,21,110,1,0,1.34373192900057,FALSE,FALSE
S61,simple,4,far,1,far,22,100,1,0,1.954563667,FALSE,FALSE
S61,simple,4,far,1,far,23,90,0,11,0.881341656999211,FALSE,FALSE
S61,simple,4,far,1,far,24,100,0,0,1.07405129600011,FALSE,FALSE
S61,simple,4,far,1,far,25,110,1,12,1.11371103700003,FALSE,FALSE
S62,simple,1,near,1,near,1,20,0,0,0.710592509999969,FALSE,FALSE
S62,simple,1,near,1,near,2,40,0,0,0.630132772000252,FALSE,FALSE
S62,simple,1,near,1,near,3,60,0,0,0.765637201000118,FALSE,FALSE
S62,simple,1,near,1,near,4,80,0,0,0.714217988999735,FALSE,FALSE
S62,simple,1,near,1,near,5,100,0,0,1.10920542399981,FALSE,FALSE
S62,simple,1,near,1,near,6,120,0,0,1.48862810299988,FALSE,FALSE
S62,simple,1,near,1,near,7,140,1,1,1.61007861300004,FALSE,FALSE
S62,simple,1,near,1,near,8,120,1,0,0.839517383999919,FALSE,FALSE
S62,simple,1,near,1,near,9,100,0,2,0.85468648799997,FALSE,FALSE
S62,simple,1,near,1,near,10,120,0,0,0.976229389000309,FALSE,FALSE
S62,simple,1,near,1,near,11,130,1,3,1.29969931799997,FALSE,FALSE
S62,simple,1,near,1,near,12,120,0,4,1.09359819200017,FALSE,FALSE
S62,simple,1,near,1,near,13,130,0,0,1.43409645299971,FALSE,FALSE
S62,simple,1,near,1,near,14,140,0,0,1.30148742200026,FALSE,FALSE
S62,simple,1,near,1,near,15,150,0,0,0.919569690999651,FALSE,FALSE
S62,simple,1,near,1,near,16,160,1,5,2.29413113500004,FALSE,FALSE
S62,simple,1,near,1,near,17,150,0,6,1.18646443899979,FALSE,FALSE
S62,simple,1,near,1,near,18,160,0,0,1.20399825799996,FALSE,FALSE
S62,simple,1,near,1,near,19,170,0,0,1.11285498999996,FALSE,FALSE
S62,simple,1,near,1,near,20,180,0,0,0.139125891000276,TRUE,TRUE
S62,simple,1,near,1,near,21,190,1,7,1.22156763400017,FALSE,FALSE
S62,simple,1,near,1,near,22,180,1,0,1.65531561599983,FALSE,FALSE
S62,simple,1,near,1,near,23,170,1,0,0.920343745000082,FALSE,FALSE
S62,simple,1,near,1,near,24,160,1,0,1.81756189499993,FALSE,FALSE
S62,simple,1,near,1,near,25,150,1,0,2.76558979799984,FALSE,FALSE
S62,simple,1,near,1,near,26,140,1,0,2.38599415599992,FALSE,FALSE
S62,simple,1,near,1,near,27,130,0,8,1.09029032199987,FALSE,FALSE
S62,simple,1,near,1,near,28,140,1,9,0.827924073999839,FALSE,FALSE
S62,simple,1,near,1,near,29,130,1,0,1.42900027500036,FALSE,FALSE
S62,simple,1,near,1,near,30,120,1,0,1.18790051199994,FALSE,FALSE
S62,simple,1,near,1,near,31,110,0,10,0.631165249999867,FALSE,FALSE
S62,simple,1,near,1,near,32,120,0,0,0.655458572000043,TRUE,FALSE
S62,simple,1,near,1,near,33,130,0,0,0.879994331999569,FALSE,FALSE
S62,simple,1,near,1,near,34,140,0,0,0.769740607000131,FALSE,FALSE
S62,simple,1,near,1,near,35,150,0,0,0.747367550000035,FALSE,FALSE
S62,simple,1,near,1,near,36,160,0,0,1.40422906200001,FALSE,FALSE
S62,simple,1,near,1,near,37,170,1,11,1.36398065100002,FALSE,FALSE
S62,simple,1,near,1,near,38,160,1,0,0.860686413000167,FALSE,FALSE
S62,simple,1,near,1,near,39,150,1,0,1.62739476100023,FALSE,FALSE
S62,simple,1,near,1,near,40,140,0,12,0.85917160200006,FALSE,FALSE
S62,simple,2,near,1,near,1,20,0,0,0.654431567000302,FALSE,FALSE
S62,simple,2,near,1,near,2,40,0,0,0.668114650999996,FALSE,FALSE
S62,simple,2,near,1,near,3,60,0,0,0.694113484999889,FALSE,FALSE
S62,simple,2,near,1,near,4,80,0,0,0.816379795000103,FALSE,FALSE
S62,simple,2,near,1,near,5,100,0,0,1.00536577599996,FALSE,FALSE
S62,simple,2,near,1,near,6,120,0,0,1.03128669699981,FALSE,FALSE
S62,simple,2,near,1,near,7,140,0,0,0.980405368999982,FALSE,FALSE
S62,simple,2,near,1,near,8,160,1,1,0.58053457799997,TRUE,FALSE
S62,simple,2,near,1,near,9,140,1,0,0.626498239000284,FALSE,FALSE
S62,simple,2,near,1,near,10,120,0,2,1.13227044599989,FALSE,FALSE
S62,simple,2,near,1,near,11,140,0,0,0.729591036000329,FALSE,FALSE
S62,simple,2,near,1,near,12,150,1,3,1.96800609599995,FALSE,FALSE
S62,simple,2,near,1,near,13,140,0,4,2.13051517099984,FALSE,FALSE
S62,simple,2,near,1,near,14,150,1,5,0.977274360000138,FALSE,FALSE
S62,simple,2,near,1,near,15,140,0,6,1.4340659479999,FALSE,FALSE
S62,simple,2,near,1,near,16,150,0,0,0.899977325000236,FALSE,FALSE
S62,simple,2,near,1,near,17,160,0,0,1.08704088100012,FALSE,FALSE
S62,simple,2,near,1,near,18,170,0,0,1.11386231000006,FALSE,FALSE
S62,simple,2,near,1,near,19,180,0,0,1.65313972900003,FALSE,FALSE
S62,simple,2,near,1,near,20,190,1,7,1.60743978299979,FALSE,FALSE
S62,simple,2,near,1,near,21,180,1,0,2.07034938200013,FALSE,FALSE
S62,simple,2,near,1,near,22,170,1,0,0.839098057000228,FALSE,FALSE
S62,simple,2,near,1,near,23,160,0,8,1.26280789699967,FALSE,FALSE
S62,simple,2,near,1,near,24,170,1,9,0.827326548000201,FALSE,FALSE
S62,simple,2,near,1,near,25,160,1,0,2.17481732999977,FALSE,FALSE
S62,simple,2,near,1,near,26,150,0,10,1.43300281100028,FALSE,FALSE
S62,simple,2,near,1,near,27,160,0,0,1.26358177300017,FALSE,FALSE
S62,simple,2,near,1,near,28,170,0,0,2.533557191,TRUE,FALSE
S62,simple,2,near,1,near,29,180,0,0,0.822499420999975,FALSE,FALSE
S62,simple,2,near,1,near,30,190,1,11,1.58600795299981,FALSE,FALSE
S62,simple,2,near,1,near,31,180,0,12,1.39830747099995,FALSE,FALSE
S62,simple,3,far,1,far,1,220,0,0,2.22562020999976,FALSE,FALSE
S62,simple,3,far,1,far,2,220,0,0,0.792106153000077,FALSE,FALSE
S62,simple,3,far,1,far,3,220,0,0,0.82589595699983,FALSE,FALSE
S62,simple,3,far,1,far,4,220,1,1,1.07251859799999,FALSE,FALSE
S62,simple,3,far,1,far,5,200,0,2,1.58453624200001,FALSE,FALSE
S62,simple,3,far,1,far,6,220,1,3,0.821036338999875,FALSE,FALSE
S62,simple,3,far,1,far,7,210,1,0,1.10310348899975,FALSE,FALSE
S62,simple,3,far,1,far,8,200,1,0,1.23011581299988,FALSE,FALSE
S62,simple,3,far,1,far,9,190,0,4,1.63200778100008,FALSE,FALSE
S62,simple,3,far,1,far,10,200,1,5,1.62071484500029,FALSE,FALSE
S62,simple,3,far,1,far,11,190,1,0,1.59294657100008,FALSE,FALSE
S62,simple,3,far,1,far,12,180,1,0,0.936075970000275,FALSE,FALSE
S62,simple,3,far,1,far,13,170,1,0,0.860874153999703,FALSE,FALSE
S62,simple,3,far,1,far,14,160,0,6,1.62370419099989,FALSE,FALSE
S62,simple,3,far,1,far,15,170,0,0,1.47442733699972,FALSE,FALSE
S62,simple,3,far,1,far,16,180,0,0,1.32212787700018,FALSE,FALSE
S62,simple,3,far,1,far,17,190,1,7,0.932849996000186,FALSE,FALSE
S62,simple,3,far,1,far,18,180,1,0,0.97572299300009,FALSE,FALSE
S62,simple,3,far,1,far,19,170,1,0,1.04616467999995,FALSE,FALSE
S62,simple,3,far,1,far,20,160,1,0,2.18415230200026,FALSE,FALSE
S62,simple,3,far,1,far,21,150,1,0,3.08316371499996,FALSE,FALSE
S62,simple,3,far,1,far,22,140,0,8,0.896162431999983,FALSE,FALSE
S62,simple,3,far,1,far,23,150,0,0,0.787151605999952,FALSE,FALSE
S62,simple,3,far,1,far,24,160,0,0,1.13294640200002,FALSE,FALSE
S62,simple,3,far,1,far,25,170,1,9,1.45807124900011,FALSE,FALSE
S62,simple,3,far,1,far,26,160,0,10,1.38963502600018,FALSE,FALSE
S62,simple,3,far,1,far,27,170,1,11,2.03290428399987,FALSE,FALSE
S62,simple,3,far,1,far,28,160,1,0,1.80698605199996,FALSE,FALSE
S62,simple,3,far,1,far,29,150,0,12,1.25386850699988,FALSE,FALSE
S62,simple,4,far,1,far,1,220,0,0,0.771057525999822,FALSE,FALSE
S62,simple,4,far,1,far,2,220,1,1,1.41595059099973,FALSE,FALSE
S62,simple,4,far,1,far,3,200,1,0,1.10499224800014,FALSE,FALSE
S62,simple,4,far,1,far,4,180,1,0,0.796673343999828,FALSE,FALSE
S62,simple,4,far,1,far,5,160,0,2,2.408986379,FALSE,FALSE
S62,simple,4,far,1,far,6,180,0,0,0.793857424999715,FALSE,FALSE
S62,simple,4,far,1,far,7,190,0,0,1.61961302400005,FALSE,FALSE
S62,simple,4,far,1,far,8,200,1,3,1.81859863799991,FALSE,FALSE
S62,simple,4,far,1,far,9,190,1,0,1.07030066899961,FALSE,FALSE
S62,simple,4,far,1,far,10,180,1,0,0.798402483000245,FALSE,FALSE
S62,simple,4,far,1,far,11,170,1,0,0.873214516000189,FALSE,FALSE
S62,simple,4,far,1,far,12,160,0,4,0.929700486000002,FALSE,FALSE
S62,simple,4,far,1,far,13,170,0,0,0.8567896630002,FALSE,FALSE
S62,simple,4,far,1,far,14,180,0,0,0.716354718000275,FALSE,FALSE
S62,simple,4,far,1,far,15,190,0,0,0.792939605999891,FALSE,FALSE
S62,simple,4,far,1,far,16,200,0,0,1.17404827500013,FALSE,FALSE
S62,simple,4,far,1,far,17,210,0,0,0.806205044999842,FALSE,FALSE
S62,simple,4,far,1,far,18,220,0,0,1.21809871000005,FALSE,FALSE
S62,simple,4,far,1,far,19,220,1,5,0.676603473999876,FALSE,FALSE
S62,simple,4,far,1,far,20,210,1,0,0.919222513000022,FALSE,FALSE
S62,simple,4,far,1,far,21,200,1,0,1.37426378099963,FALSE,FALSE
S62,simple,4,far,1,far,22,190,1,0,0.775179431000197,FALSE,FALSE
S62,simple,4,far,1,far,23,180,1,0,0.892159859000003,FALSE,FALSE
S62,simple,4,far,1,far,24,170,0,6,1.33375000199976,FALSE,FALSE
S62,simple,4,far,1,far,25,180,1,7,1.46431195600007,FALSE,FALSE
S62,simple,4,far,1,far,26,170,1,0,1.80326095300006,FALSE,FALSE
S62,simple,4,far,1,far,27,160,1,0,1.53262216999974,FALSE,FALSE
S62,simple,4,far,1,far,28,150,0,8,0.772831577000034,FALSE,FALSE
S62,simple,4,far,1,far,29,160,0,0,0.0597155140003451,TRUE,TRUE
S62,simple,4,far,1,far,30,170,0,0,2.50633653000023,FALSE,FALSE
S62,simple,4,far,1,far,31,180,0,0,2.19939114999988,FALSE,FALSE
S62,simple,4,far,1,far,32,190,1,9,0.74600515200018,FALSE,FALSE
S62,simple,4,far,1,far,33,180,0,10,2.15236719199993,FALSE,FALSE
S62,simple,4,far,1,far,34,190,0,0,1.12378493599999,FALSE,FALSE
S62,simple,4,far,1,far,35,200,1,11,1.18478406199984,FALSE,FALSE
S62,simple,4,far,1,far,36,190,0,12,0.771457326000018,FALSE,FALSE
S63,simple,1,far,1,far,1,220,1,0,0.778162372999759,FALSE,FALSE
S63,simple,1,far,1,far,2,200,0,1,1.21465273500053,FALSE,FALSE
S63,simple,1,far,1,far,3,220,1,2,0.846921487000145,FALSE,FALSE
S63,simple,1,far,1,far,4,200,1,0,1.02749873500034,FALSE,FALSE
S63,simple,1,far,1,far,5,190,0,3,1.43737891500041,FALSE,FALSE
S63,simple,1,far,1,far,6,200,1,4,0.856182796999747,FALSE,FALSE
S63,simple,1,far,1,far,7,190,0,5,0.987853286000245,FALSE,FALSE
S63,simple,1,far,1,far,8,200,1,6,0.837125723000099,FALSE,FALSE
S63,simple,1,far,1,far,9,190,1,0,1.27326641399941,FALSE,FALSE
S63,simple,1,far,1,far,10,180,0,7,1.14764805400046,FALSE,FALSE
S63,simple,1,far,1,far,11,190,0,0,1.4581977580001,FALSE,FALSE
S63,simple,1,far,1,far,12,200,1,8,1.44600528799947,FALSE,FALSE
S63,simple,1,far,1,far,13,190,1,0,1.0101486399999,FALSE,FALSE
S63,simple,1,far,1,far,14,180,1,0,1.43652143999952,FALSE,FALSE
S63,simple,1,far,1,far,15,170,0,9,1.02397268999994,FALSE,FALSE
S63,simple,1,far,1,far,16,180,1,10,1.1987017499996,FALSE,FALSE
S63,simple,1,far,1,far,17,170,1,0,1.11444029699942,FALSE,FALSE
S63,simple,1,far,1,far,18,160,0,11,1.25009028099976,FALSE,FALSE
S63,simple,1,far,1,far,19,170,1,12,0.992120984000394,FALSE,FALSE
S63,simple,2,near,1,near,1,20,0,0,0.869462218000081,FALSE,FALSE
S63,simple,2,near,1,near,2,40,0,0,0.898684610999226,FALSE,FALSE
S63,simple,2,near,1,near,3,60,0,0,0.739837518000058,FALSE,FALSE
S63,simple,2,near,1,near,4,80,0,0,0.996554126999399,FALSE,FALSE
S63,simple,2,near,1,near,5,100,0,0,1.06239839600039,FALSE,FALSE
S63,simple,2,near,1,near,6,120,1,1,0.66851965999922,FALSE,FALSE
S63,simple,2,near,1,near,7,100,0,2,1.22988803200042,FALSE,FALSE
S63,simple,2,near,1,near,8,120,1,3,0.811793287,FALSE,FALSE
S63,simple,2,near,1,near,9,110,0,4,0.83809716199994,FALSE,FALSE
S63,simple,2,near,1,near,10,120,1,5,0.780550249999578,FALSE,FALSE
S63,simple,2,near,1,near,11,110,0,6,1.03527120999934,FALSE,FALSE
S63,simple,2,near,1,near,12,120,0,0,0.902301799999805,FALSE,FALSE
S63,simple,2,near,1,near,13,130,0,0,0.999386767000033,FALSE,FALSE
S63,simple,2,near,1,near,14,140,1,7,0.70508063699981,FALSE,FALSE
S63,simple,2,near,1,near,15,130,1,0,1.16817638900011,FALSE,FALSE
S63,simple,2,near,1,near,16,120,0,8,0.923898312999881,FALSE,FALSE
S63,simple,2,near,1,near,17,130,0,0,1.31267555400063,FALSE,FALSE
S63,simple,2,near,1,near,18,140,1,9,0.925259532999917,FALSE,FALSE
S63,simple,2,near,1,near,19,130,1,0,0.796269884999674,FALSE,FALSE
S63,simple,2,near,1,near,20,120,0,10,0.907533611999497,FALSE,FALSE
S63,simple,2,near,1,near,21,130,0,0,1.24372190900067,FALSE,FALSE
S63,simple,2,near,1,near,22,140,0,0,0.881660600999567,FALSE,FALSE
S63,simple,2,near,1,near,23,150,0,0,1.16608565000024,FALSE,FALSE
S63,simple,2,near,1,near,24,160,0,0,1.32747054100037,FALSE,FALSE
S63,simple,2,near,1,near,25,170,1,11,0.664876013999674,FALSE,FALSE
S63,simple,2,near,1,near,26,160,1,0,0.763381767000283,FALSE,FALSE
S63,simple,2,near,1,near,27,150,0,12,1.12568264699985,FALSE,FALSE
S63,simple,3,near,1,near,1,20,0,0,0.482338333000371,FALSE,FALSE
S63,simple,3,near,1,near,2,40,0,0,0.698516096999811,FALSE,FALSE
S63,simple,3,near,1,near,3,60,0,0,0.751641298999857,FALSE,FALSE
S63,simple,3,near,1,near,4,80,0,0,0.730714607999289,FALSE,FALSE
S63,simple,3,near,1,near,5,100,0,0,0.886195234999832,FALSE,FALSE
S63,simple,3,near,1,near,6,120,0,0,0.940825675000269,FALSE,FALSE
S63,simple,3,near,1,near,7,140,1,1,0.767971336999835,FALSE,FALSE
S63,simple,3,near,1,near,8,120,0,2,0.952738519000377,FALSE,FALSE
S63,simple,3,near,1,near,9,140,0,0,1.29033104799964,FALSE,FALSE
S63,simple,3,near,1,near,10,150,1,3,0.742293020000034,FALSE,FALSE
S63,simple,3,near,1,near,11,140,1,0,1.20080216800034,FALSE,FALSE
S63,simple,3,near,1,near,12,130,0,4,1.16848421299983,FALSE,FALSE
S63,simple,3,near,1,near,13,140,0,0,1.00844978000077,FALSE,FALSE
S63,simple,3,near,1,near,14,150,1,5,1.26692043000003,FALSE,FALSE
S63,simple,3,near,1,near,15,140,1,0,1.02136986999994,FALSE,FALSE
S63,simple,3,near,1,near,16,130,1,0,0.998140996999609,FALSE,FALSE
S63,simple,3,near,1,near,17,120,0,6,1.01211154799967,FALSE,FALSE
S63,simple,3,near,1,near,18,130,0,0,1.07592222200037,FALSE,FALSE
S63,simple,3,near,1,near,19,140,0,0,1.05455689500013,FALSE,FALSE
S63,simple,3,near,1,near,20,150,1,7,0.950769375000164,FALSE,FALSE
S63,simple,3,near,1,near,21,140,1,0,0.770661728999585,FALSE,FALSE
S63,simple,3,near,1,near,22,130,0,8,0.849944364000294,FALSE,FALSE
S63,simple,3,near,1,near,23,140,1,9,0.731503210000483,FALSE,FALSE
S63,simple,3,near,1,near,24,130,0,10,0.780675563999466,FALSE,FALSE
S63,simple,3,near,1,near,25,140,0,0,0.658604612999625,FALSE,FALSE
S63,simple,3,near,1,near,26,150,0,0,0.887354661000245,FALSE,FALSE
S63,simple,3,near,1,near,27,160,0,0,1.20818042700012,FALSE,FALSE
S63,simple,3,near,1,near,28,170,1,11,0.732010587000332,FALSE,FALSE
S63,simple,3,near,1,near,29,160,0,12,1.52836146999925,FALSE,FALSE
S63,simple,4,far,1,far,1,220,0,0,1.0018663740002,FALSE,FALSE
S63,simple,4,far,1,far,2,220,1,1,0.695346198000152,FALSE,FALSE
S63,simple,4,far,1,far,3,200,1,0,0.885792702999424,FALSE,FALSE
S63,simple,4,far,1,far,4,180,1,0,1.04537052600062,FALSE,FALSE
S63,simple,4,far,1,far,5,160,1,0,1.31766095300009,FALSE,FALSE
S63,simple,4,far,1,far,6,140,0,2,0.984687653999572,FALSE,FALSE
S63,simple,4,far,1,far,7,160,0,0,0.890039621000142,TRUE,FALSE
S63,simple,4,far,1,far,8,170,0,0,1.1711161559997,FALSE,FALSE
S63,simple,4,far,1,far,9,180,1,3,1.49564653300058,FALSE,FALSE
S63,simple,4,far,1,far,10,170,1,0,0.964749768000729,FALSE,FALSE
S63,simple,4,far,1,far,11,160,0,4,1.45671578900055,FALSE,FALSE
S63,simple,4,far,1,far,12,170,0,0,1.10548797199954,FALSE,FALSE
S63,simple,4,far,1,far,13,180,0,0,1.01996633500039,FALSE,FALSE
S63,simple,4,far,1,far,14,190,1,5,0.91035563100013,FALSE,FALSE
S63,simple,4,far,1,far,15,180,0,6,0.996611529999427,FALSE,FALSE
S63,simple,4,far,1,far,16,190,0,0,0.981688577000568,FALSE,FALSE
S63,simple,4,far,1,far,17,200,1,7,0.961239305999698,FALSE,FALSE
S63,simple,4,far,1,far,18,190,1,0,0.902670532000229,FALSE,FALSE
S63,simple,4,far,1,far,19,180,1,0,0.86767708699972,FALSE,FALSE
S63,simple,4,far,1,far,20,170,1,0,0.908120396000413,FALSE,FALSE
S63,simple,4,far,1,far,21,160,0,8,1.15838919500038,FALSE,FALSE
S63,simple,4,far,1,far,22,170,0,0,1.02232049299982,FALSE,FALSE
S63,simple,4,far,1,far,23,180,0,0,1.36884778100011,FALSE,FALSE
S63,simple,4,far,1,far,24,190,1,9,0.768689386000005,FALSE,FALSE
S63,simple,4,far,1,far,25,180,1,0,0.72282810500019,FALSE,FALSE
S63,simple,4,far,1,far,26,170,1,0,1.01033632099916,FALSE,FALSE
S63,simple,4,far,1,far,27,160,0,10,1.5595602049998,FALSE,FALSE
S63,simple,4,far,1,far,28,170,0,0,1.26312683200013,FALSE,FALSE
S63,simple,4,far,1,far,29,180,1,11,0.850292185999933,FALSE,FALSE
S63,simple,4,far,1,far,30,170,1,0,0.795100913999704,TRUE,FALSE
S63,simple,4,far,1,far,31,160,1,0,1.39265301100022,FALSE,FALSE
S63,simple,4,far,1,far,32,150,0,12,1.08979720199932,FALSE,FALSE
S65,simple,1,far,1,far,1,220,1,0,0.926120409999839,TRUE,FALSE
S65,simple,1,far,1,far,2,200,1,0,1.69589370499989,FALSE,FALSE
S65,simple,1,far,1,far,3,180,0,1,1.33066393200011,FALSE,FALSE
S65,simple,1,far,1,far,4,200,1,2,1.36183084500021,FALSE,FALSE
S65,simple,1,far,1,far,5,180,0,3,1.36124387400014,FALSE,FALSE
S65,simple,1,far,1,far,6,190,1,4,1.64710255500017,FALSE,FALSE
S65,simple,1,far,1,far,7,180,0,5,1.53164679799988,FALSE,FALSE
S65,simple,1,far,1,far,8,190,0,0,1.23730447299999,FALSE,FALSE
S65,simple,1,far,1,far,9,200,0,0,1.54971610500002,FALSE,FALSE
S65,simple,1,far,1,far,10,210,0,0,1.91991833199995,FALSE,FALSE
S65,simple,1,far,1,far,11,220,0,0,1.66548420400022,FALSE,FALSE
S65,simple,1,far,1,far,12,220,1,6,1.80003399300017,FALSE,FALSE
S65,simple,1,far,1,far,13,210,0,7,1.7775933150001,FALSE,FALSE
S65,simple,1,far,1,far,14,220,0,0,1.77908420800009,FALSE,FALSE
S65,simple,1,far,1,far,15,220,0,0,1.744373279,FALSE,FALSE
S65,simple,1,far,1,far,16,220,0,0,1.88224459999992,FALSE,FALSE
S65,simple,1,far,1,far,17,220,0,0,2.52612800500015,FALSE,FALSE
S65,simple,1,far,1,far,18,220,0,0,3.13414366300003,TRUE,FALSE
S65,simple,1,far,1,far,19,220,0,0,2.09142092299999,FALSE,FALSE
S65,simple,1,far,1,far,20,220,1,8,2.15214662699987,FALSE,FALSE
S65,simple,1,far,1,far,21,210,0,9,1.3206604049999,FALSE,FALSE
S65,simple,1,far,1,far,22,220,1,10,1.43945945999985,FALSE,FALSE
S65,simple,1,far,1,far,23,210,0,11,1.32619343600004,FALSE,FALSE
S65,simple,1,far,1,far,24,220,1,12,1.67573795400017,FALSE,FALSE
S65,simple,2,near,1,near,1,20,0,0,1.49558999800001,FALSE,FALSE
S65,simple,2,near,1,near,2,40,0,0,0.66155326299986,FALSE,FALSE
S65,simple,2,near,1,near,3,60,0,0,0.918553522000138,FALSE,FALSE
S65,simple,2,near,1,near,4,80,0,0,1.41472406199978,FALSE,FALSE
S65,simple,2,near,1,near,5,100,1,1,0.625390939999761,FALSE,FALSE
S65,simple,2,near,1,near,6,80,0,2,1.01426842899991,FALSE,FALSE
S65,simple,2,near,1,near,7,100,1,3,0.621743396000056,FALSE,FALSE
S65,simple,2,near,1,near,8,90,0,4,1.93622681199986,TRUE,FALSE
S65,simple,2,near,1,near,9,100,1,5,0.720176597000318,FALSE,FALSE
S65,simple,2,near,1,near,10,90,0,6,1.07635686100002,FALSE,FALSE
S65,simple,2,near,1,near,11,100,1,7,0.714523206000194,FALSE,FALSE
S65,simple,2,near,1,near,12,90,0,8,0.956485110999893,FALSE,FALSE
S65,simple,2,near,1,near,13,100,1,9,1.49710828300022,FALSE,FALSE
S65,simple,2,near,1,near,14,90,0,10,0.642935361999662,TRUE,FALSE
S65,simple,2,near,1,near,15,100,1,11,0.775595202000204,FALSE,FALSE
S65,simple,2,near,1,near,16,90,0,12,1.38457341999992,TRUE,FALSE
S65,simple,3,near,1,near,1,20,0,0,0.929296165000324,FALSE,FALSE
S65,simple,3,near,1,near,2,40,0,0,0.376633850999951,FALSE,FALSE
S65,simple,3,near,1,near,3,60,0,0,0.494281136999689,FALSE,FALSE
S65,simple,3,near,1,near,4,80,0,0,0.8437147249997,FALSE,FALSE
S65,simple,3,near,1,near,5,100,0,0,2.35269606699967,FALSE,FALSE
S65,simple,3,near,1,near,6,120,1,1,0.474678335000135,FALSE,FALSE
S65,simple,3,near,1,near,7,100,1,0,1.4912575469998,FALSE,FALSE
S65,simple,3,near,1,near,8,80,0,2,0.739204317999793,FALSE,FALSE
S65,simple,3,near,1,near,9,100,1,3,1.2442074810001,FALSE,FALSE
S65,simple,3,near,1,near,10,90,0,4,1.08851961200025,FALSE,FALSE
S65,simple,3,near,1,near,11,100,1,5,1.36936283100022,FALSE,FALSE
S65,simple,3,near,1,near,12,90,0,6,1.05086007999989,FALSE,FALSE
S65,simple,3,near,1,near,13,100,1,7,0.614554991000205,FALSE,FALSE
S65,simple,3,near,1,near,14,90,0,8,1.0866199369998,FALSE,FALSE
S65,simple,3,near,1,near,15,100,1,9,1.36267538199991,FALSE,FALSE
S65,simple,3,near,1,near,16,90,0,10,1.03813856899978,FALSE,FALSE
S65,simple,3,near,1,near,17,100,1,11,1.77430078999987,FALSE,FALSE
S65,simple,3,near,1,near,18,90,0,12,0.641238283000348,TRUE,FALSE
S65,simple,4,far,1,far,1,220,1,0,0.585794351999994,TRUE,FALSE
S65,simple,4,far,1,far,2,200,1,0,0.512271141999918,TRUE,FALSE
S65,simple,4,far,1,far,3,180,1,0,0.430554303000008,TRUE,FALSE
S65,simple,4,far,1,far,4,160,1,0,0.740847956999914,FALSE,FALSE
S65,simple,4,far,1,far,5,140,1,0,0.571090954999818,FALSE,FALSE
S65,simple,4,far,1,far,6,120,1,0,0.986619425000299,FALSE,FALSE
S65,simple,4,far,1,far,7,100,1,0,0.955963715000053,FALSE,FALSE
S65,simple,4,far,1,far,8,80,0,1,0.488049064999814,FALSE,FALSE
S65,simple,4,far,1,far,9,100,0,0,0.759708199000215,FALSE,FALSE
S65,simple,4,far,1,far,10,120,1,2,1.06436622799993,FALSE,FALSE
S65,simple,4,far,1,far,11,100,0,3,1.18692887599991,FALSE,FALSE
S65,simple,4,far,1,far,12,110,1,4,1.00993054699984,FALSE,FALSE
S65,simple,4,far,1,far,13,100,1,0,1.22490073400013,FALSE,FALSE
S65,simple,4,far,1,far,14,90,0,5,0.48078825399989,FALSE,FALSE
S65,simple,4,far,1,far,15,100,1,6,1.00549618200012,FALSE,FALSE
S65,simple,4,far,1,far,16,90,0,7,0.601526202000059,FALSE,FALSE
S65,simple,4,far,1,far,17,100,0,0,0.779326156000025,FALSE,FALSE
S65,simple,4,far,1,far,18,110,1,8,1.51106089200039,FALSE,FALSE
S65,simple,4,far,1,far,19,100,0,9,0.513299061999987,FALSE,FALSE
S65,simple,4,far,1,far,20,110,0,0,0.996631976000117,FALSE,FALSE
S65,simple,4,far,1,far,21,120,1,10,0.5251686470001,FALSE,FALSE
S65,simple,4,far,1,far,22,110,0,11,0.552885519000029,TRUE,FALSE
S65,simple,4,far,1,far,23,120,1,12,0.601080920000186,FALSE,FALSE
S66,simple,1,near,1,near,1,20,0,0,0.967938247999882,FALSE,FALSE
S66,simple,1,near,1,near,2,40,0,0,0.948515338999641,FALSE,FALSE
S66,simple,1,near,1,near,3,60,0,0,0.858817194999574,FALSE,FALSE
S66,simple,1,near,1,near,4,80,0,0,1.05390377700041,FALSE,FALSE
S66,simple,1,near,1,near,5,100,1,1,1.12453843599997,FALSE,FALSE
S66,simple,1,near,1,near,6,80,0,2,1.12751340900013,FALSE,FALSE
S66,simple,1,near,1,near,7,100,1,3,1.23154158000034,FALSE,FALSE
S66,simple,1,near,1,near,8,90,0,4,1.51433442799953,FALSE,FALSE
S66,simple,1,near,1,near,9,100,1,5,0.963418242000444,FALSE,FALSE
S66,simple,1,near,1,near,10,90,0,6,1.48371609800051,FALSE,FALSE
S66,simple,1,near,1,near,11,100,1,7,0.967617471000267,FALSE,FALSE
S66,simple,1,near,1,near,12,90,0,8,1.15745326600063,FALSE,FALSE
S66,simple,1,near,1,near,13,100,1,9,2.39732221800023,FALSE,FALSE
S66,simple,1,near,1,near,14,90,1,0,1.62483237099968,FALSE,FALSE
S66,simple,1,near,1,near,15,80,0,10,0.897664764999718,FALSE,FALSE
S66,simple,1,near,1,near,16,90,0,0,1.87792550199993,FALSE,FALSE
S66,simple,1,near,1,near,17,100,1,11,1.60221969299982,FALSE,FALSE
S66,simple,1,near,1,near,18,90,0,12,1.56188355300037,FALSE,FALSE
S66,simple,2,far,1,far,1,220,1,0,0.90132949800045,FALSE,FALSE
S66,simple,2,far,1,far,2,200,1,0,1.5798865350007,FALSE,FALSE
S66,simple,2,far,1,far,3,180,0,1,1.46361426000021,FALSE,FALSE
S66,simple,2,far,1,far,4,200,1,2,0.763963638999485,FALSE,FALSE
S66,simple,2,far,1,far,5,180,1,0,0.885826110999915,FALSE,FALSE
S66,simple,2,far,1,far,6,170,1,0,0.916731846999937,FALSE,FALSE
S66,simple,2,far,1,far,7,160,1,0,1.1821274949998,FALSE,FALSE
S66,simple,2,far,1,far,8,150,1,0,1.56223687399961,FALSE,FALSE
S66,simple,2,far,1,far,9,140,1,0,1.46691343899965,FALSE,FALSE
S66,simple,2,far,1,far,10,130,1,0,1.92285808300039,FALSE,FALSE
S66,simple,2,far,1,far,11,120,0,3,0.951118887999655,FALSE,FALSE
S66,simple,2,far,1,far,12,130,1,4,1.21628179799973,FALSE,FALSE
S66,simple,2,far,1,far,13,120,1,0,1.59943935599949,FALSE,FALSE
S66,simple,2,far,1,far,14,110,0,5,0.992861665999953,FALSE,FALSE
S66,simple,2,far,1,far,15,120,1,6,1.08063985200079,FALSE,FALSE
S66,simple,2,far,1,far,16,110,0,7,1.13900341699991,FALSE,FALSE
S66,simple,2,far,1,far,17,120,0,0,1.42936260200077,FALSE,FALSE
S66,simple,2,far,1,far,18,130,1,8,1.34970631600027,FALSE,FALSE
S66,simple,2,far,1,far,19,120,0,9,1.67007510599979,FALSE,FALSE
S66,simple,2,far,1,far,20,130,1,10,0.949801230000048,FALSE,FALSE
S66,simple,2,far,1,far,21,120,0,11,1.26474884100026,FALSE,FALSE
S66,simple,2,far,1,far,22,130,1,12,1.85931822999919,FALSE,FALSE
S66,simple,3,far,1,far,1,220,1,0,1.22536621900053,FALSE,FALSE
S66,simple,3,far,1,far,2,200,1,0,1.47867532200053,FALSE,FALSE
S66,simple,3,far,1,far,3,180,1,0,0.920084374999533,FALSE,FALSE
S66,simple,3,far,1,far,4,160,1,0,0.759520150999379,FALSE,FALSE
S66,simple,3,far,1,far,5,140,1,0,1.11082966200047,FALSE,FALSE
S66,simple,3,far,1,far,6,120,0,1,2.53468045600039,FALSE,FALSE
S66,simple,3,far,1,far,7,140,1,2,0.878469006000159,FALSE,FALSE
S66,simple,3,far,1,far,8,120,1,0,2.29510506699989,FALSE,FALSE
S66,simple,3,far,1,far,9,110,0,3,2.22128223900017,FALSE,FALSE
S66,simple,3,far,1,far,10,120,1,4,2.10648890199991,FALSE,FALSE
S66,simple,3,far,1,far,11,110,1,0,2.23788556900035,FALSE,FALSE
S66,simple,3,far,1,far,12,100,0,5,1.12015569600044,FALSE,FALSE
S66,simple,3,far,1,far,13,110,0,0,1.3922990179999,FALSE,FALSE
S66,simple,3,far,1,far,14,120,0,0,1.74320080699999,FALSE,FALSE
S66,simple,3,far,1,far,15,130,1,6,1.24344427800042,FALSE,FALSE
S66,simple,3,far,1,far,16,120,1,0,1.09070536200034,FALSE,FALSE
S66,simple,3,far,1,far,17,110,1,0,1.66568516300049,FALSE,FALSE
S66,simple,3,far,1,far,18,100,0,7,1.78237010200064,FALSE,FALSE
S66,simple,3,far,1,far,19,110,1,8,2.80116709600043,FALSE,FALSE
S66,simple,3,far,1,far,20,100,0,9,1.21429795399945,FALSE,FALSE
S66,simple,3,far,1,far,21,110,1,10,1.6596281660004,FALSE,FALSE
S66,simple,3,far,1,far,22,100,0,11,1.74201604399968,FALSE,FALSE
S66,simple,3,far,1,far,23,110,1,12,1.02807343200038,FALSE,FALSE
S66,simple,4,near,1,near,1,20,0,0,0.857400232000145,FALSE,FALSE
S66,simple,4,near,1,near,2,40,0,0,0.936841081999773,FALSE,FALSE
S66,simple,4,near,1,near,3,60,0,0,0.790291844999956,FALSE,FALSE
S66,simple,4,near,1,near,4,80,0,0,0.779892723999183,FALSE,FALSE
S66,simple,4,near,1,near,5,100,0,0,1.51442065699939,FALSE,FALSE
S66,simple,4,near,1,near,6,120,0,0,2.01254566999978,FALSE,FALSE
S66,simple,4,near,1,near,7,140,1,1,0.741179561999161,FALSE,FALSE
S66,simple,4,near,1,near,8,120,1,0,1.98392347899971,FALSE,FALSE
S66,simple,4,near,1,near,9,100,0,2,1.27512248800031,FALSE,FALSE
S66,simple,4,near,1,near,10,120,1,3,0.983871050999369,TRUE,FALSE
S66,simple,4,near,1,near,11,110,1,0,2.13430187499944,FALSE,FALSE
S66,simple,4,near,1,near,12,100,0,4,1.11829986800058,FALSE,FALSE
S66,simple,4,near,1,near,13,110,1,5,1.85220521199972,FALSE,FALSE
S66,simple,4,near,1,near,14,100,0,6,2.26685471599922,FALSE,FALSE
S66,simple,4,near,1,near,15,110,1,7,1.36844920299973,FALSE,FALSE
S66,simple,4,near,1,near,16,100,1,0,2.2399111299992,FALSE,FALSE
S66,simple,4,near,1,near,17,90,0,8,1.12727921900023,FALSE,FALSE
S66,simple,4,near,1,near,18,100,0,0,1.03525969299972,FALSE,FALSE
S66,simple,4,near,1,near,19,110,0,0,1.17019134099974,FALSE,FALSE
S66,simple,4,near,1,near,20,120,1,9,1.7380494149993,FALSE,FALSE
S66,simple,4,near,1,near,21,110,1,0,1.39013826399969,FALSE,FALSE
S66,simple,4,near,1,near,22,100,0,10,1.32365287599987,FALSE,FALSE
S66,simple,4,near,1,near,23,110,1,11,3.60347716700016,FALSE,TRUE
S66,simple,4,near,1,near,24,100,0,12,1.47931596999933,FALSE,FALSE
S67,simple,1,near,1,near,1,20,0,0,0.657738013998824,FALSE,FALSE
S67,simple,1,near,1,near,2,40,0,0,0.613593686999593,FALSE,FALSE
S67,simple,1,near,1,near,3,60,0,0,0.653210665999723,FALSE,FALSE
S67,simple,1,near,1,near,4,80,0,0,0.731276697999419,FALSE,FALSE
S67,simple,1,near,1,near,5,100,1,1,1.03993280399845,FALSE,FALSE
S67,simple,1,near,1,near,6,80,0,2,0.813306721998742,FALSE,FALSE
S67,simple,1,near,1,near,7,100,1,3,1.19156280899915,FALSE,FALSE
S67,simple,1,near,1,near,8,90,0,4,1.08225217700056,FALSE,FALSE
S67,simple,1,near,1,near,9,100,1,5,1.46486804500091,FALSE,FALSE
S67,simple,1,near,1,near,10,90,0,6,0.77738657000009,FALSE,FALSE
S67,simple,1,near,1,near,11,100,0,0,1.01515701000062,FALSE,FALSE
S67,simple,1,near,1,near,12,110,1,7,1.42748753300111,FALSE,FALSE
S67,simple,1,near,1,near,13,100,1,0,1.15257759899941,FALSE,FALSE
S67,simple,1,near,1,near,14,90,0,8,0.872515150000254,FALSE,FALSE
S67,simple,1,near,1,near,15,100,0,0,2.16357184200024,FALSE,FALSE
S67,simple,1,near,1,near,16,110,0,0,1.51075445400056,FALSE,FALSE
S67,simple,1,near,1,near,17,120,0,0,1.4431881799992,FALSE,FALSE
S67,simple,1,near,1,near,18,130,0,0,1.04301351600043,FALSE,FALSE
S67,simple,1,near,1,near,19,140,1,9,1.05336802000056,FALSE,FALSE
S67,simple,1,near,1,near,20,130,1,0,1.25178258800042,FALSE,FALSE
S67,simple,1,near,1,near,21,120,1,0,1.12676280899905,FALSE,FALSE
S67,simple,1,near,1,near,22,110,1,0,1.17332700800034,FALSE,FALSE
S67,simple,1,near,1,near,23,100,1,0,1.4489806319998,FALSE,FALSE
S67,simple,1,near,1,near,24,90,0,10,0.769347687999471,FALSE,FALSE
S67,simple,1,near,1,near,25,100,1,11,1.71619276800084,FALSE,FALSE
S67,simple,1,near,1,near,26,90,0,12,1.09706756800006,FALSE,FALSE
S67,simple,2,far,1,far,1,220,1,0,0.970287582998935,FALSE,FALSE
S67,simple,2,far,1,far,2,200,1,0,0.606699985000887,FALSE,FALSE
S67,simple,2,far,1,far,3,180,1,0,0.922537927999656,FALSE,FALSE
S67,simple,2,far,1,far,4,160,1,0,0.75914054200075,FALSE,FALSE
S67,simple,2,far,1,far,5,140,1,0,0.790642251999088,FALSE,FALSE
S67,simple,2,far,1,far,6,120,0,1,1.78951935999976,FALSE,FALSE
S67,simple,2,far,1,far,7,140,1,2,0.684261592001349,FALSE,FALSE
S67,simple,2,far,1,far,8,120,0,3,1.01739235100104,FALSE,FALSE
S67,simple,2,far,1,far,9,130,1,4,0.957874389998324,FALSE,FALSE
S67,simple,2,far,1,far,10,120,0,5,0.880077432999315,FALSE,FALSE
S67,simple,2,far,1,far,11,130,1,6,0.735240619000251,FALSE,FALSE
S67,simple,2,far,1,far,12,120,1,0,1.12678625499939,FALSE,FALSE
S67,simple,2,far,1,far,13,110,1,0,1.13988784700086,FALSE,FALSE
S67,simple,2,far,1,far,14,100,1,0,0.757765608999762,FALSE,FALSE
S67,simple,2,far,1,far,15,90,0,7,0.869607149999865,FALSE,FALSE
S67,simple,2,far,1,far,16,100,1,8,0.850444427000184,FALSE,FALSE
S67,simple,2,far,1,far,17,90,0,9,0.672455612000704,FALSE,FALSE
S67,simple,2,far,1,far,18,100,0,0,1.36695187800069,FALSE,FALSE
S67,simple,2,far,1,far,19,110,0,0,1.22314562200154,FALSE,FALSE
S67,simple,2,far,1,far,20,120,1,10,1.27419178299897,FALSE,FALSE
S67,simple,2,far,1,far,21,110,1,0,0.716200742999717,FALSE,FALSE
S67,simple,2,far,1,far,22,100,1,0,1.39311784500023,FALSE,FALSE
S67,simple,2,far,1,far,23,90,0,11,0.859002440998665,FALSE,FALSE
S67,simple,2,far,1,far,24,100,0,0,0.810538532999999,FALSE,FALSE
S67,simple,2,far,1,far,25,110,0,0,0.979077445999792,FALSE,FALSE
S67,simple,2,far,1,far,26,120,1,12,0.932321374999447,FALSE,FALSE
S67,simple,3,near,1,near,1,20,0,0,0.883007242999156,FALSE,FALSE
S67,simple,3,near,1,near,2,40,0,0,0.604818066000007,FALSE,FALSE
S67,simple,3,near,1,near,3,60,0,0,0.701823741001135,FALSE,FALSE
S67,simple,3,near,1,near,4,80,0,0,0.9722336979994,FALSE,FALSE
S67,simple,3,near,1,near,5,100,1,1,1.85071934000007,FALSE,FALSE
S67,simple,3,near,1,near,6,80,0,2,0.706543820000661,FALSE,FALSE
S67,simple,3,near,1,near,7,100,1,3,1.15292742699967,FALSE,FALSE
S67,simple,3,near,1,near,8,90,0,4,1.68608774700078,FALSE,FALSE
S67,simple,3,near,1,near,9,100,1,5,1.09368843000084,FALSE,FALSE
