Subject,Target,Distance,Trial,Response,RT,OutlierDist,OutlierSubj
S51,4,100,1,0,0.790394784999988,FALSE,FALSE
S51,5,120,2,1,0.687736751000102,FALSE,FALSE
S51,2,60,3,0,0.717930596000315,FALSE,FALSE
S51,4,100,4,0,1.02271374500015,TRUE,FALSE
S51,4,100,5,0,0.961040919999959,FALSE,FALSE
S51,3,80,6,1,1.12060629899997,TRUE,FALSE
S51,3,80,7,0,0.825481502999992,FALSE,FALSE
S51,9,200,8,1,0.69818158299995,FALSE,FALSE
S51,7,160,9,1,0.788563781999983,FALSE,FALSE
S51,3,80,10,0,0.72243246700009,FALSE,FALSE
S51,2,60,11,0,0.708133237999846,FALSE,FALSE
S51,8,180,12,1,0.692446498000209,FALSE,FALSE
S51,10,220,13,1,0.833300621000035,FALSE,FALSE
S51,9,200,14,1,1.35379572800002,FALSE,FALSE
S51,8,180,15,0,1.12030877500001,FALSE,FALSE
S51,3,80,16,0,0.682753717000196,FALSE,FALSE
S51,7,160,17,0,1.33360172999983,TRUE,FALSE
S51,8,180,18,1,0.763614424000025,FALSE,FALSE
S51,8,180,19,0,1.48230701900002,FALSE,FALSE
S51,7,160,20,1,0.802567908999663,FALSE,FALSE
S51,1,40,21,0,0.67030783600012,FALSE,FALSE
S51,1,40,22,0,0.71517790300004,FALSE,FALSE
S51,6,140,23,0,0.864070379999703,FALSE,FALSE
S51,6,140,24,0,0.85700774399993,FALSE,FALSE
S51,10,220,25,1,0.70576638600005,FALSE,FALSE
S51,5,120,26,0,0.880849910000052,FALSE,FALSE
S51,8,180,27,1,0.755194763999953,FALSE,FALSE
S51,1,40,28,0,0.662486955000077,FALSE,FALSE
S51,3,80,29,0,0.65437579699983,FALSE,FALSE
S51,5,120,30,0,0.897990591000053,FALSE,FALSE
S51,10,220,31,1,0.976607687000069,FALSE,FALSE
S51,3,80,32,0,0.64758459299992,FALSE,FALSE
S51,4,100,33,0,0.765469796999696,FALSE,FALSE
S51,6,140,34,1,1.27821014900019,FALSE,FALSE
S51,5,120,35,1,1.2260550850001,FALSE,FALSE
S51,3,80,36,0,0.64902178400007,FALSE,FALSE
S51,8,180,37,1,0.730243785999846,FALSE,FALSE
S51,4,100,38,0,0.639281650000157,FALSE,FALSE
S51,7,160,39,1,0.901631307999651,FALSE,FALSE
S51,7,160,40,1,0.745913055000074,FALSE,FALSE
S51,5,120,41,0,1.54119067800002,FALSE,FALSE
S51,4,100,42,0,0.72077345300022,FALSE,FALSE
S51,10,220,43,1,0.923897774000125,FALSE,FALSE
S51,2,60,44,0,0.666209288000118,FALSE,FALSE
S51,7,160,45,1,0.787458155999957,FALSE,FALSE
S51,4,100,46,0,0.684138980000171,FALSE,FALSE
S51,8,180,47,1,1.15426481499981,FALSE,FALSE
S51,5,120,48,0,1.1785105619997,FALSE,FALSE
S51,5,120,49,0,0.824303196000074,FALSE,FALSE
S51,7,160,50,1,0.68480665099969,FALSE,FALSE
S51,6,140,51,1,1.23669129599966,FALSE,FALSE
S51,4,100,52,0,0.706074106999949,FALSE,FALSE
S51,2,60,53,0,0.659962582999924,FALSE,FALSE
S51,5,120,54,0,0.899933134999628,FALSE,FALSE
S51,6,140,55,0,1.220567157,FALSE,FALSE
S51,3,80,56,0,0.653558524000346,FALSE,FALSE
S51,6,140,57,0,1.50952623099965,FALSE,FALSE
S51,1,40,58,0,0.6464768310002,FALSE,FALSE
S51,9,200,59,1,0.800457515999824,FALSE,FALSE
S51,6,140,60,1,0.657020725999701,FALSE,FALSE
S51,8,180,61,1,0.631743698999799,FALSE,FALSE
S51,6,140,62,1,0.667439199,FALSE,FALSE
S51,7,160,63,1,0.666425630000049,FALSE,FALSE
S51,9,200,64,1,1.22740545199986,FALSE,FALSE
S51,4,100,65,0,0.682744533999994,FALSE,FALSE
S52,3,80,1,0,0.911840606000624,FALSE,FALSE
S52,4,100,2,1,1.41121480600032,FALSE,FALSE
S52,3,80,3,0,1.06245086799936,FALSE,FALSE
S52,3,80,4,0,0.690435478999461,FALSE,FALSE
S52,6,140,5,1,0.766694789999747,FALSE,FALSE
S52,4,100,6,0,1.50080931399953,FALSE,FALSE
S52,4,100,7,0,1.50742318299945,FALSE,FALSE
S52,8,180,8,1,0.780128346999845,FALSE,FALSE
S52,5,120,9,1,0.965318681999634,FALSE,FALSE
S52,9,200,10,1,0.598446320000221,FALSE,FALSE
S52,7,160,11,1,0.591414558999531,FALSE,FALSE
S52,1,40,12,0,0.705830666999645,FALSE,FALSE
S52,4,100,13,0,1.36701174000063,FALSE,FALSE
S52,9,200,14,1,0.65910048799924,FALSE,FALSE
S52,5,120,15,0,1.45760760900066,FALSE,FALSE
S52,5,120,16,1,1.67026984600034,FALSE,FALSE
S52,8,180,17,1,0.744999225999891,FALSE,FALSE
S52,10,220,18,1,0.639791634000176,FALSE,FALSE
S52,4,100,19,0,0.689551989999927,TRUE,FALSE
S52,6,140,20,1,1.15159444999972,FALSE,FALSE
S52,10,220,21,1,0.796423384000263,FALSE,FALSE
S52,1,40,22,0,0.325544530000116,FALSE,FALSE
S52,10,220,23,1,0.5946219260004,FALSE,FALSE
S52,3,80,24,1,0.811410245999468,FALSE,FALSE
S52,10,220,25,1,0.706770800000413,FALSE,FALSE
S52,6,140,26,1,1.4052888719998,FALSE,FALSE
S52,7,160,27,1,0.583898361000138,FALSE,FALSE
S52,5,120,28,0,0.891627218000394,FALSE,FALSE
S52,7,160,29,1,0.600135036000211,FALSE,FALSE
S52,7,160,30,1,0.676290463999976,FALSE,FALSE
S52,3,80,31,0,0.62739862699982,FALSE,FALSE
S52,5,120,32,0,0.922560107000209,FALSE,FALSE
S52,4,100,33,0,1.17112123599964,FALSE,FALSE
S52,7,160,34,1,0.729544595999869,FALSE,FALSE
S52,9,200,35,1,1.3182537190005,TRUE,FALSE
S52,9,200,36,1,0.687141897000402,FALSE,FALSE
S52,8,180,37,1,0.702964142999917,FALSE,FALSE
S52,6,140,38,1,1.18046455600052,FALSE,FALSE
S52,6,140,39,1,0.626049180000336,FALSE,FALSE
S52,8,180,40,1,0.900336843999867,FALSE,FALSE
S52,7,160,41,1,0.933778630000234,TRUE,FALSE
S52,6,140,42,1,1.47516327599988,FALSE,FALSE
S52,5,120,43,0,1.16723279899998,FALSE,FALSE
S52,6,140,44,1,1.48547258500002,FALSE,FALSE
S52,2,60,45,1,0.681514969000091,FALSE,FALSE
S52,2,60,46,0,0.680642745000114,FALSE,FALSE
S52,5,120,47,1,1.10216312499961,FALSE,FALSE
S52,1,40,48,0,0.440149476999977,FALSE,FALSE
S52,6,140,49,1,0.641392978000113,FALSE,FALSE
S52,3,80,50,0,0.616361999999754,FALSE,FALSE
S52,1,40,51,0,0.687603355999272,FALSE,FALSE
S52,8,180,52,1,0.63639149500068,FALSE,FALSE
S52,4,100,53,0,1.14479540399952,FALSE,FALSE
S52,5,120,54,1,0.920739893000246,FALSE,FALSE
S52,3,80,55,0,0.666718532000232,FALSE,FALSE
S52,8,180,56,1,0.779517650999878,FALSE,FALSE
S52,2,60,57,0,0.677110685000116,FALSE,FALSE
S52,7,160,58,1,0.611585349000052,FALSE,FALSE
S52,8,180,59,1,0.610826522000025,FALSE,FALSE
S52,8,180,60,1,0.535552186000132,FALSE,FALSE
S52,3,80,61,0,0.643891716000326,FALSE,FALSE
S52,7,160,62,1,0.607529523000267,FALSE,FALSE
S52,4,100,63,0,1.21436564300075,FALSE,FALSE
S52,2,60,64,0,0.618398894000165,TRUE,FALSE
S52,3,80,65,0,0.71938308100016,FALSE,FALSE
S53,5,120,1,1,1.4699872630008,FALSE,FALSE
S53,4,100,2,1,0.9910763830012,FALSE,FALSE
S53,6,140,3,1,1.09193111700006,FALSE,FALSE
S53,6,140,4,1,0.772842170999866,FALSE,FALSE
S53,7,160,5,1,2.06765018900114,FALSE,TRUE
S53,4,100,6,0,1.17587794999963,FALSE,FALSE
S53,8,180,7,1,0.900112145000094,TRUE,FALSE
S53,7,160,8,1,2.05465097199885,FALSE,TRUE
S53,7,160,9,1,2.69694654100022,FALSE,TRUE
S53,3,80,10,0,0.767666178000582,FALSE,FALSE
S53,3,80,11,0,0.778383876999214,FALSE,FALSE
S53,6,140,12,1,1.52764530400054,FALSE,FALSE
S53,3,80,13,0,0.722499180999876,FALSE,FALSE
S53,2,60,14,0,0.681669495999813,FALSE,FALSE
S53,7,160,15,1,0.722418338000352,FALSE,FALSE
S53,5,120,16,0,1.11014643400085,FALSE,FALSE
S53,2,60,17,0,0.636403587999666,FALSE,FALSE
S53,5,120,18,0,0.979013706999467,FALSE,FALSE
S53,3,80,19,0,0.907094574999064,FALSE,FALSE
S53,4,100,20,0,0.984256375000768,FALSE,FALSE
S53,7,160,21,1,0.490552323000884,FALSE,FALSE
S53,9,200,22,1,0.791595176999181,FALSE,FALSE
S53,5,120,23,0,1.2530124799996,FALSE,FALSE
S53,10,220,24,1,0.681415574999846,FALSE,FALSE
S53,2,60,25,0,0.57900924400019,FALSE,FALSE
S53,3,80,26,0,0.744461523001519,FALSE,FALSE
S53,10,220,27,1,0.636560234001081,FALSE,FALSE
S53,4,100,28,0,1.09560649100058,FALSE,FALSE
S53,3,80,29,0,0.923874739999519,FALSE,FALSE
S53,8,180,30,1,0.641835209000419,FALSE,FALSE
S53,6,140,31,1,1.50624044399956,FALSE,FALSE
S53,8,180,32,1,0.640342298998803,FALSE,FALSE
S53,4,100,33,0,0.955559945999994,FALSE,FALSE
S53,9,200,34,1,0.698719804000575,FALSE,FALSE
S53,7,160,35,1,0.684083760999783,FALSE,FALSE
S53,6,140,36,1,0.839065837000817,FALSE,FALSE
S53,9,200,37,1,2.05633423600011,TRUE,TRUE
S53,8,180,38,1,0.603638513999613,FALSE,FALSE
S53,1,40,39,0,0.771463267999934,FALSE,FALSE
S53,10,220,40,0,0.716957975000696,FALSE,FALSE
S53,6,140,41,1,0.996117450000384,FALSE,FALSE
S53,1,40,42,0,0.641086233999886,FALSE,FALSE
S53,8,180,43,1,0.825652282001101,FALSE,FALSE
S53,3,80,44,0,0.987002067000503,FALSE,FALSE
S53,7,160,45,1,1.14278164400093,FALSE,FALSE
S53,8,180,46,1,0.704775509000683,FALSE,FALSE
S53,8,180,47,1,0.673276024999723,FALSE,FALSE
S53,5,120,48,1,0.906383518000439,FALSE,FALSE
S53,6,140,49,0,1.0348103719989,FALSE,FALSE
S53,4,100,50,0,0.667090132999874,FALSE,FALSE
S53,2,60,51,0,0.68199505100165,FALSE,FALSE
S53,1,40,52,0,0.614579244000197,FALSE,FALSE
S53,6,140,53,1,1.74400046499977,FALSE,FALSE
S53,5,120,54,0,0.949343940999825,FALSE,FALSE
S53,7,160,55,1,0.640586674000588,FALSE,FALSE
S53,1,40,56,0,0.602165243000854,FALSE,FALSE
S53,4,100,57,0,0.766487677999976,FALSE,FALSE
S53,4,100,58,0,1.19699350100018,FALSE,FALSE
S53,5,120,59,1,0.75957202599966,FALSE,FALSE
S53,5,120,60,1,0.629850264000197,TRUE,FALSE
S53,8,180,61,1,0.637640174998523,FALSE,FALSE
S53,9,200,62,1,0.480131147998691,FALSE,FALSE
S53,10,220,63,1,0.497960669999884,FALSE,FALSE
S53,3,80,64,0,0.910097538000628,FALSE,FALSE
S53,5,120,65,0,1.01907016400037,FALSE,FALSE
S54,8,180,1,1,1.11974563200056,FALSE,FALSE
S54,4,100,2,0,0.474350927999694,FALSE,FALSE
S54,3,80,3,0,0.442374309001025,FALSE,FALSE
S54,5,120,4,0,1.31373576700025,FALSE,FALSE
S54,3,80,5,0,1.39266325199969,TRUE,FALSE
S54,3,80,6,0,1.21671314800005,TRUE,FALSE
S54,4,100,7,0,1.60707129000002,FALSE,FALSE
S54,5,120,8,0,0.88343028700001,FALSE,FALSE
S54,10,220,9,1,0.887919130998853,FALSE,FALSE
S54,5,120,10,1,2.41474378999919,TRUE,FALSE
S54,1,40,11,0,0.79176421199918,FALSE,FALSE
S54,1,40,12,0,0.719022882998615,FALSE,FALSE
S54,8,180,13,1,0.830406643999595,FALSE,FALSE
S54,8,180,14,1,0.621862263000367,FALSE,FALSE
S54,7,160,15,1,0.57669327000076,TRUE,FALSE
S54,5,120,16,0,1.01791681900067,FALSE,FALSE
S54,7,160,17,1,1.54216056599944,FALSE,FALSE
S54,6,140,18,0,0.955551192999337,FALSE,FALSE
S54,5,120,19,0,1.0144814510003901,FALSE,FALSE
S54,5,120,20,0,1.37665675800054,FALSE,FALSE
S54,8,180,21,1,1.10213777900026,FALSE,FALSE
S54,5,120,22,0,0.832254843000555,FALSE,FALSE
S54,6,140,23,0,2.12743903699993,FALSE,FALSE
S54,1,40,24,0,0.690489435999552,FALSE,FALSE
S54,4,100,25,0,0.742995649001386,FALSE,FALSE
S54,2,60,26,0,1.08646289900025,FALSE,FALSE
S54,9,200,27,1,1.31010103600056,FALSE,FALSE
S54,8,180,28,1,2.43781508999928,TRUE,FALSE
S54,6,140,29,1,2.061197437999,FALSE,FALSE
S54,7,160,30,1,1.04477462000068,FALSE,FALSE
S54,8,180,31,1,0.783266096999796,FALSE,FALSE
S54,3,80,32,0,0.652425259999291,FALSE,FALSE
S54,6,140,33,1,1.45209266200072,FALSE,FALSE
S54,8,180,34,1,0.897528555000463,FALSE,FALSE
S54,10,220,35,0,3.76788903200031,TRUE,TRUE
S54,1,40,36,0,0.508254582000518,TRUE,FALSE
S54,3,80,37,0,0.642307266998614,FALSE,FALSE
S54,2,60,38,0,0.56991266300065,FALSE,FALSE
S54,6,140,39,1,1.05101399699925,FALSE,FALSE
S54,3,80,40,0,0.533733649001078,FALSE,FALSE
S54,10,220,41,1,0.714168683000025,FALSE,FALSE
S54,7,160,42,1,0.921749989000091,FALSE,FALSE
S54,4,100,43,0,1.33102376200077,FALSE,FALSE
S54,7,160,44,1,1.0653289790007,FALSE,FALSE
S54,9,200,45,1,0.670355565000136,FALSE,FALSE
S54,4,100,46,0,0.626799721001589,FALSE,FALSE
S54,8,180,47,1,1.88121889600006,TRUE,FALSE
S54,2,60,48,0,0.688624700000219,FALSE,FALSE
S54,5,120,49,1,1.14564438799971,FALSE,FALSE
S54,4,100,50,0,0.68499938000059,FALSE,FALSE
S54,4,100,51,0,1.07111206700029,FALSE,FALSE
S54,6,140,52,1,3.27062651599954,FALSE,FALSE
S54,6,140,53,1,1.62707391100048,FALSE,FALSE
S54,4,100,54,0,0.490998019999097,FALSE,FALSE
S54,10,220,55,1,0.827269723999052,FALSE,FALSE
S54,9,200,56,1,0.642326203000266,FALSE,FALSE
S54,6,140,57,1,1.71317668200027,FALSE,FALSE
S54,9,200,58,1,0.770681983000031,FALSE,FALSE
S54,3,80,59,0,0.654587962000733,FALSE,FALSE
S54,7,160,60,1,1.11262636699939,FALSE,FALSE
S54,7,160,61,1,0.855528357998992,FALSE,FALSE
S54,2,60,62,0,0.787568477000605,FALSE,FALSE
S54,7,160,63,1,1.21842814900083,FALSE,FALSE
S54,3,80,64,0,0.64847295599975,FALSE,FALSE
S54,8,180,65,1,0.951341186999343,FALSE,FALSE
S55,7,160,1,1,1.33136420099981,FALSE,FALSE
S55,6,140,2,0,1.01944601200012,FALSE,FALSE
S55,3,80,3,0,0.918054693000158,FALSE,FALSE
S55,6,140,4,0,1.29583486099727,FALSE,FALSE
S55,8,180,5,1,0.873206268999638,FALSE,FALSE
S55,4,100,6,0,0.871987650996743,FALSE,FALSE
S55,7,160,7,1,0.734581556000194,FALSE,FALSE
S55,3,80,8,0,0.608314969002095,FALSE,FALSE
S55,7,160,9,1,0.594236889999593,FALSE,FALSE
S55,10,220,10,0,1.10509701900082,FALSE,FALSE
S55,7,160,11,0,0.7826857809996,FALSE,FALSE
S55,1,40,12,0,1.03989056999853,FALSE,FALSE
S55,2,60,13,0,1.05635412099946,FALSE,FALSE
S55,4,100,14,0,0.950475153000298,FALSE,FALSE
S55,4,100,15,0,1.15290781700241,FALSE,FALSE
S55,1,40,16,0,0.897201268999197,FALSE,FALSE
S55,6,140,17,0,1.42466590199911,FALSE,FALSE
S55,5,120,18,0,1.21835662599915,FALSE,FALSE
S55,6,140,19,1,1.4323283800004,FALSE,FALSE
S55,6,140,20,1,1.44236728800024,FALSE,FALSE
S55,4,100,21,0,0.517580674000783,TRUE,FALSE
S55,9,200,22,1,0.707647852999798,FALSE,FALSE
S55,9,200,23,1,0.867102584001259,FALSE,FALSE
S55,8,180,24,1,0.65405282500069,FALSE,FALSE
S55,9,200,25,1,0.977739664002002,FALSE,FALSE
S55,3,80,26,0,0.987011059998622,FALSE,FALSE
S55,4,100,27,0,0.958254863999173,FALSE,FALSE
S55,6,140,28,0,1.06947311900149,FALSE,FALSE
S55,10,220,29,1,0.71498482899915,FALSE,FALSE
S55,4,100,30,0,0.885329830001865,FALSE,FALSE
S55,8,180,31,1,0.752314100998774,FALSE,FALSE
S55,8,180,32,1,0.727356997002062,FALSE,FALSE
S55,2,60,33,0,0.621830295000109,FALSE,FALSE
S55,10,220,34,1,0.755266159998428,FALSE,FALSE
S55,2,60,35,0,0.640526005001448,FALSE,FALSE
S55,5,120,36,0,1.15060536999954,FALSE,FALSE
S55,1,40,37,0,0.672348448999401,TRUE,FALSE
S55,3,80,38,0,0.51189410400184,FALSE,FALSE
S55,3,80,39,0,0.75757538399921,FALSE,FALSE
S55,5,120,40,0,1.39904341800138,FALSE,FALSE
S55,5,120,41,0,0.926643143000547,FALSE,FALSE
S55,8,180,42,1,0.787297101000149,FALSE,FALSE
S55,7,160,43,1,1.73328493499866,FALSE,FALSE
S55,4,100,44,0,0.722851634000108,FALSE,FALSE
S55,5,120,45,0,0.729695793001156,FALSE,FALSE
S55,10,220,46,1,0.606446780999249,FALSE,FALSE
S55,5,120,47,0,0.663061412000388,FALSE,FALSE
S55,3,80,48,0,0.669467124000221,FALSE,FALSE
S55,2,60,49,0,0.871861934996559,FALSE,FALSE
S55,8,180,50,1,0.771709661003115,FALSE,FALSE
S55,3,80,51,0,0.657857009002328,FALSE,FALSE
S55,9,200,52,1,0.917846477001149,FALSE,FALSE
S55,6,140,53,0,0.615312457000982,FALSE,FALSE
S55,1,40,54,0,0.928476981000131,FALSE,FALSE
S55,7,160,55,1,1.01871891100018,FALSE,FALSE
S55,7,160,56,1,1.35626879800111,FALSE,FALSE
S55,5,120,57,0,1.14182031000018,FALSE,FALSE
S55,4,100,58,0,0.826515319000464,FALSE,FALSE
S55,3,80,59,0,0.655403646997001,FALSE,FALSE
S55,8,180,60,1,0.894857235001837,FALSE,FALSE
S55,5,120,61,0,1.07797539700186,FALSE,FALSE
S55,7,160,62,1,0.898379283000395,FALSE,FALSE
S55,8,180,63,1,1.15370302000156,TRUE,FALSE
S55,6,140,64,0,0.807922645002691,FALSE,FALSE
S55,7,160,65,0,1.27867886400054,FALSE,FALSE
S56,7,160,1,1,1.33472347200222,FALSE,FALSE
S56,8,180,2,1,0.481661017998704,FALSE,FALSE
S56,3,80,3,0,0.595589704000304,FALSE,FALSE
S56,6,140,4,0,0.940978210001049,FALSE,FALSE
S56,3,80,5,0,0.621706892998191,FALSE,FALSE
S56,8,180,6,1,0.620825607002189,FALSE,FALSE
S56,6,140,7,0,0.662965945997712,FALSE,FALSE
S56,2,60,8,0,0.520369334000861,FALSE,FALSE
S56,5,120,9,1,0.437952329000836,FALSE,FALSE
S56,7,160,10,1,0.532944960999885,FALSE,FALSE
S56,7,160,11,1,0.575265382001817,FALSE,FALSE
S56,10,220,12,1,0.502310376999958,FALSE,FALSE
S56,1,40,13,0,0.480839677002223,FALSE,FALSE
S56,6,140,14,0,1.34302201200262,TRUE,FALSE
S56,9,200,15,1,0.695192971001234,FALSE,FALSE
S56,4,100,16,0,0.920127221997973,FALSE,FALSE
S56,3,80,17,0,0.546875964999344,FALSE,FALSE
S56,10,220,18,1,0.451260767000349,FALSE,FALSE
S56,8,180,19,1,1.11716995399911,TRUE,FALSE
S56,5,120,20,0,1.01234260999991,FALSE,FALSE
S56,3,80,21,0,0.632109186000889,FALSE,FALSE
S56,1,40,22,0,0.603440359001979,FALSE,FALSE
S56,2,60,23,0,0.541466951002803,FALSE,FALSE
S56,8,180,24,1,0.712379985001462,FALSE,FALSE
S56,4,100,25,0,0.573427744999208,FALSE,FALSE
S56,6,140,26,1,0.684395814998425,FALSE,FALSE
S56,7,160,27,1,1.37416834900068,FALSE,FALSE
S56,6,140,28,1,0.808595918999345,FALSE,FALSE
S56,4,100,29,0,0.507682661998842,FALSE,FALSE
S56,7,160,30,1,1.00388894199932,FALSE,FALSE
S56,5,120,31,1,1.4730098910004,FALSE,FALSE
S56,5,120,32,1,1.71814895399802,FALSE,FALSE
S56,8,180,33,1,0.611126736999722,FALSE,FALSE
S56,8,180,34,1,0.550115923000703,FALSE,FALSE
S56,7,160,35,1,0.569613974999811,FALSE,FALSE
S56,1,40,36,0,0.352778101001604,FALSE,FALSE
S56,3,80,37,0,0.923417939000501,TRUE,FALSE
S56,4,100,38,0,1.07042824299788,FALSE,FALSE
S56,10,220,39,1,0.507290937999642,FALSE,FALSE
S56,6,140,40,1,0.76828288699835,FALSE,FALSE
S56,6,140,41,1,0.749930719000986,FALSE,FALSE
S56,5,120,42,1,0.698818500000925,FALSE,FALSE
S56,4,100,43,0,0.70612240400078,FALSE,FALSE
S56,2,60,44,0,0.524909362000471,FALSE,FALSE
S56,4,100,45,0,0.900044519003131,FALSE,FALSE
S56,4,100,46,0,1.00998320299914,FALSE,FALSE
S56,8,180,47,1,0.42776557599791,FALSE,FALSE
S56,9,200,48,1,0.540210045001004,FALSE,FALSE
S56,3,80,49,0,0.416892737001035,TRUE,FALSE
S56,3,80,50,0,0.615821624000091,FALSE,FALSE
S56,7,160,51,1,0.533802992998972,FALSE,FALSE
S56,4,100,52,0,0.829120647002128,FALSE,FALSE
S56,5,120,53,1,0.602048302000185,FALSE,FALSE
S56,6,140,54,1,0.841307956998207,FALSE,FALSE
S56,8,180,55,1,0.45221318500262,FALSE,FALSE
S56,1,40,56,0,0.472335823997128,FALSE,FALSE
S56,7,160,57,1,0.62912674099789,FALSE,FALSE
S56,3,80,58,0,0.950834008999664,TRUE,FALSE
S56,5,120,59,1,0.569259026000509,FALSE,FALSE
S56,9,200,60,1,0.494099867999466,FALSE,FALSE
S56,5,120,61,0,0.953971320999699,FALSE,FALSE
S56,2,60,62,0,0.861676939999597,TRUE,FALSE
S56,10,220,63,1,0.41321959799825,FALSE,FALSE
S56,9,200,64,1,0.504442214001756,FALSE,FALSE
S56,7,160,65,0,0.921977652000351,FALSE,FALSE
S57,5,120,1,1,0.986771265001153,TRUE,FALSE
S57,4,100,2,0,1.31566328700137,FALSE,FALSE
S57,3,80,3,0,1.10385816100097,FALSE,FALSE
S57,5,120,4,1,1.69867565499953,FALSE,FALSE
S57,1,40,5,0,0.980199878998974,FALSE,FALSE
S57,5,120,6,1,0.924983081000391,TRUE,FALSE
S57,9,200,7,1,0.987656879999122,FALSE,FALSE
S57,1,40,8,0,1.04601067999829,FALSE,FALSE
S57,1,40,9,0,0.998674390000815,FALSE,FALSE
S57,7,160,10,1,1.12396348300172,FALSE,FALSE
S57,7,160,11,1,1.41172747199744,FALSE,FALSE
S57,10,220,12,1,1.11975286099914,FALSE,FALSE
S57,3,80,13,0,1.21020491399759,FALSE,FALSE
S57,2,60,14,0,1.22006877699823,FALSE,FALSE
S57,9,200,15,1,1.13238042500234,FALSE,FALSE
S57,4,100,16,0,1.24505506100104,FALSE,FALSE
S57,7,160,17,1,0.935464271999081,FALSE,FALSE
S57,5,120,18,1,1.52217056700101,FALSE,FALSE
S57,7,160,19,1,1.32505162500092,FALSE,FALSE
S57,3,80,20,0,1.19437089400162,FALSE,FALSE
S57,8,180,21,1,1.13415444899874,FALSE,FALSE
S57,7,160,22,1,1.45394517100067,FALSE,FALSE
S57,6,140,23,1,1.40122748900103,FALSE,FALSE
S57,3,80,24,0,1.39107717799925,FALSE,FALSE
S57,9,200,25,1,1.33495812199908,FALSE,FALSE
S57,7,160,26,1,1.31039779799903,FALSE,FALSE
S57,8,180,27,1,1.56163506099983,FALSE,FALSE
S57,6,140,28,1,1.31516770099915,FALSE,FALSE
S57,8,180,29,1,1.42700591000175,FALSE,FALSE
S57,4,100,30,0,1.27397835300144,FALSE,FALSE
S57,2,60,31,0,1.19744250499934,FALSE,FALSE
S57,8,180,32,1,1.00378838799952,FALSE,FALSE
S57,2,60,33,0,1.1030515909988,FALSE,FALSE
S57,6,140,34,1,1.59357768800328,FALSE,FALSE
S57,6,140,35,1,1.28417492900189,FALSE,FALSE
S57,5,120,36,0,1.82255143299699,FALSE,FALSE
S57,3,80,37,0,1.45455852599844,FALSE,FALSE
S57,3,80,38,0,1.54797965599937,FALSE,FALSE
S57,4,100,39,0,1.69184598399806,FALSE,FALSE
S57,4,100,40,0,1.81527444099993,TRUE,FALSE
S57,6,140,41,1,1.3209520019991,FALSE,FALSE
S57,1,40,42,0,1.19083051000052,FALSE,FALSE
S57,4,100,43,0,1.34772000999874,FALSE,FALSE
S57,8,180,44,1,1.24321418199906,FALSE,FALSE
S57,3,80,45,0,1.24031203100094,FALSE,FALSE
S57,7,160,46,1,1.33579895099683,FALSE,FALSE
S57,2,60,47,0,1.26894723900114,FALSE,FALSE
S57,3,80,48,0,1.47592809900016,FALSE,FALSE
S57,6,140,49,1,1.02760089000003,TRUE,FALSE
S57,10,220,50,1,1.0523648979979,FALSE,FALSE
S57,10,220,51,1,1.43941570699826,FALSE,FALSE
S57,6,140,52,1,1.48386342800222,FALSE,FALSE
S57,7,160,53,1,1.07260525500169,FALSE,FALSE
S57,4,100,54,0,1.22885492899877,FALSE,FALSE
S57,10,220,55,1,1.26624302500204,FALSE,FALSE
S57,8,180,56,1,1.37328954799887,FALSE,FALSE
S57,8,180,57,1,1.08959358299762,FALSE,FALSE
S57,5,120,58,1,1.59394401700047,FALSE,FALSE
S57,8,180,59,1,1.12273822600037,FALSE,FALSE
S57,9,200,60,1,1.1586845210004,FALSE,FALSE
S57,5,120,61,1,1.77623102300277,FALSE,FALSE
S57,5,120,62,0,1.67973758399967,FALSE,FALSE
S57,6,140,63,1,1.32335336699907,FALSE,FALSE
S57,4,100,64,0,1.32057015999817,FALSE,FALSE
S57,5,120,65,1,1.44426668800224,FALSE,FALSE
S58,5,120,1,0,1.32213585199861,FALSE,FALSE
S58,7,160,2,0,1.89772576299947,FALSE,FALSE
S58,9,200,3,1,0.963887246001832,FALSE,FALSE
S58,3,80,4,0,0.600502917000995,FALSE,FALSE
S58,3,80,5,0,0.670121986000595,FALSE,FALSE
S58,6,140,6,1,3.81029280800067,FALSE,FALSE
S58,8,180,7,1,0.873037691999343,FALSE,FALSE
S58,5,120,8,0,1.79894250500001,FALSE,FALSE
S58,10,220,9,1,0.820483827999851,FALSE,FALSE
S58,7,160,10,1,0.783411958000215,FALSE,FALSE
S58,1,40,11,0,0.691007288001856,FALSE,FALSE
S58,10,220,12,1,0.70179846999963,FALSE,FALSE
S58,4,100,13,0,1.14415329199983,FALSE,FALSE
S58,5,120,14,0,1.85381259899805,FALSE,FALSE
S58,1,40,15,0,0.706212295001023,FALSE,FALSE
S58,6,140,16,1,0.824118794000242,FALSE,FALSE
S58,4,100,17,0,1.99797988000137,FALSE,FALSE
S58,8,180,18,1,0.401752491001389,FALSE,FALSE
S58,10,220,19,1,0.711896184999205,FALSE,FALSE
S58,6,140,20,0,1.76648705600019,FALSE,FALSE
S58,3,80,21,0,0.743166552998446,FALSE,FALSE
S58,7,160,22,0,1.62732667099772,FALSE,FALSE
S58,4,100,23,0,1.00506768199921,FALSE,FALSE
S58,3,80,24,0,0.715158929000609,FALSE,FALSE
S58,10,220,25,1,2.29582577300243,TRUE,FALSE
S58,9,200,26,1,0.683199564999086,FALSE,FALSE
S58,5,120,27,0,1.09967172899997,FALSE,FALSE
S58,6,140,28,0,0.950770365001517,FALSE,FALSE
S58,1,40,29,0,0.644665100000566,FALSE,FALSE
S58,8,180,30,0,1.60204174500177,FALSE,FALSE
S58,8,180,31,1,1.13229191599748,FALSE,FALSE
S58,7,160,32,1,1.70876872000008,FALSE,FALSE
S58,7,160,33,0,1.1283839400021,FALSE,FALSE
S58,6,140,34,0,1.29602976300157,FALSE,FALSE
S58,6,140,35,0,1.52440915199986,FALSE,FALSE
S58,7,160,36,1,1.14059710800211,FALSE,FALSE
S58,5,120,37,0,0.89229995200003,FALSE,FALSE
S58,8,180,38,1,1.51547130900144,FALSE,FALSE
S58,4,100,39,0,3.51130704800016,FALSE,FALSE
S58,2,60,40,0,0.648291730998608,FALSE,FALSE
S58,7,160,41,1,0.789591545999428,FALSE,FALSE
S58,8,180,42,1,0.820896118999372,FALSE,FALSE
S58,1,40,43,0,0.47698239500096,TRUE,FALSE
S58,3,80,44,0,0.553935993000778,FALSE,FALSE
S58,8,180,45,1,0.615844767999079,FALSE,FALSE
S58,6,140,46,1,0.509477862000494,FALSE,FALSE
S58,9,200,47,1,0.61316244200134,FALSE,FALSE
S58,2,60,48,0,0.526855565000005,FALSE,FALSE
S58,5,120,49,1,0.870818390001659,FALSE,FALSE
S58,3,80,50,0,0.715982213998359,FALSE,FALSE
S58,2,60,51,0,0.565537010003027,FALSE,FALSE
S58,2,60,52,0,0.63185203300236,FALSE,FALSE
S58,4,100,53,0,1.52144340800078,FALSE,FALSE
S58,9,200,54,1,0.544965277000301,FALSE,FALSE
S58,8,180,55,1,0.565148025998496,FALSE,FALSE
S58,3,80,56,0,0.999218019998807,TRUE,FALSE
S58,4,100,57,0,0.691347584997857,FALSE,FALSE
S58,7,160,58,1,1.48828602799767,FALSE,FALSE
S58,3,80,59,0,0.473686788001942,FALSE,FALSE
S58,5,120,60,0,2.2888077940006,FALSE,FALSE
S58,4,100,61,0,0.64537415200175,FALSE,FALSE
S58,4,100,62,0,0.819196996002574,FALSE,FALSE
S58,6,140,63,1,0.637130997998611,FALSE,FALSE
S58,5,120,64,1,1.76969322999867,FALSE,FALSE
S58,5,120,65,0,0.996514033999119,FALSE,FALSE
S59,8,180,1,1,0.945447109006636,FALSE,FALSE
S59,5,120,2,1,1.49820777399873,FALSE,FALSE
S59,5,120,3,0,1.96810558599827,FALSE,FALSE
S59,3,80,4,0,1.11394709500019,FALSE,FALSE
S59,3,80,5,0,0.940224670994212,FALSE,FALSE
S59,7,160,6,1,1.1362005139963,FALSE,FALSE
S59,8,180,7,1,1.20006868999917,FALSE,FALSE
S59,7,160,8,1,1.68184692099749,FALSE,FALSE
S59,4,100,9,0,1.08193126900005,FALSE,FALSE
S59,3,80,10,0,0.978286015000776,FALSE,FALSE
S59,8,180,11,1,1.32117354899674,FALSE,FALSE
S59,9,200,12,1,1.30099865300144,FALSE,FALSE
S59,7,160,13,1,1.59779501899902,FALSE,FALSE
S59,5,120,14,0,1.73342660300113,FALSE,FALSE
S59,10,220,15,1,1.01954038300028,TRUE,FALSE
S59,4,100,16,0,1.02527488499618,FALSE,FALSE
S59,1,40,17,0,0.904070020005747,FALSE,FALSE
S59,7,160,18,1,1.31163143899903,FALSE,FALSE
S59,3,80,19,0,0.905205642993678,FALSE,FALSE
S59,4,100,20,0,1.07791441799782,FALSE,FALSE
S59,5,120,21,1,1.55065838299925,FALSE,FALSE
S59,4,100,22,0,1.88097767299769,TRUE,FALSE
S59,8,180,23,1,0.84322913899814,FALSE,FALSE
S59,6,140,24,1,1.60902850500133,FALSE,FALSE
S59,8,180,25,1,0.942829487001291,FALSE,FALSE
S59,8,180,26,1,1.48690121200343,FALSE,FALSE
S59,1,40,27,0,0.776666852994822,FALSE,FALSE
S59,6,140,28,1,1.59769786099787,FALSE,FALSE
S59,4,100,29,0,0.664503856998635,TRUE,FALSE
S59,7,160,30,1,0.923693215001549,FALSE,FALSE
S59,6,140,31,1,1.07624045500415,FALSE,FALSE
S59,2,60,32,0,0.690104036999401,FALSE,FALSE
S59,3,80,33,0,0.852457483997568,FALSE,FALSE
S59,2,60,34,0,0.838700754000456,FALSE,FALSE
S59,1,40,35,0,0.440817198999866,FALSE,FALSE
S59,10,220,36,1,0.91477887200017,FALSE,FALSE
S59,8,180,37,1,0.833358454001427,FALSE,FALSE
S59,3,80,38,0,0.893001276002906,FALSE,FALSE
S59,10,220,39,1,0.901767217001179,FALSE,FALSE
S59,9,200,40,1,0.796160266996594,FALSE,FALSE
S59,5,120,41,1,1.91779272799613,FALSE,FALSE
S59,7,160,42,1,0.833965376994456,FALSE,FALSE
S59,7,160,43,1,1.47334654600127,FALSE,FALSE
S59,2,60,44,0,0.74561937800172,FALSE,FALSE
S59,8,180,45,1,1.33723468300013,FALSE,FALSE
S59,4,100,46,0,0.953118395998899,FALSE,FALSE
S59,9,200,47,1,0.874309382001229,FALSE,FALSE
S59,6,140,48,1,1.78663298799802,FALSE,FALSE
S59,6,140,49,1,0.970588064999902,FALSE,FALSE
S59,7,160,50,1,1.1012343110051,FALSE,FALSE
S59,9,200,51,1,1.03518194299977,FALSE,FALSE
S59,1,40,52,0,0.642352495000523,FALSE,FALSE
S59,5,120,53,0,1.98843221100105,FALSE,FALSE
S59,2,60,54,0,1.01458749999438,FALSE,FALSE
S59,4,100,55,0,1.22096518200124,FALSE,FALSE
S59,4,100,56,0,0.976323488001071,FALSE,FALSE
S59,6,140,57,1,0.947170391002146,FALSE,FALSE
S59,3,80,58,0,1.50776800000313,TRUE,FALSE
S59,5,120,59,1,1.44382103499811,FALSE,FALSE
S59,6,140,60,1,1.23553699100012,FALSE,FALSE
S59,10,220,61,1,0.894867864000844,FALSE,FALSE
S59,3,80,62,0,0.792089807000593,FALSE,FALSE
S59,6,140,63,1,1.21670621900557,FALSE,FALSE
S59,5,120,64,1,1.71147036399634,FALSE,FALSE
S59,8,180,65,1,0.768976419996761,FALSE,FALSE
S60,4,100,1,0,0.696337679999942,FALSE,FALSE
S60,8,180,2,1,0.92097628800002,FALSE,FALSE
S60,6,140,3,1,1.07178446199987,FALSE,FALSE
S60,10,220,4,1,0.933353118000014,FALSE,FALSE
S60,4,100,5,0,0.942504752999866,FALSE,FALSE
S60,4,100,6,0,0.963015937000364,FALSE,FALSE
S60,5,120,7,0,1.08794480500001,FALSE,FALSE
S60,3,80,8,0,0.534688616000039,FALSE,FALSE
S60,9,200,9,1,0.54441891200031,FALSE,FALSE
S60,7,160,10,1,0.482876121000118,FALSE,FALSE
S60,6,140,11,0,0.730817747999936,TRUE,FALSE
S60,5,120,12,0,0.513110121999944,FALSE,FALSE
S60,9,200,13,1,0.622451941000236,TRUE,FALSE
S60,3,80,14,0,0.590210625000054,FALSE,FALSE
S60,3,80,15,0,0.406364731999929,FALSE,FALSE
S60,6,140,16,0,0.964456639000218,FALSE,FALSE
S60,7,160,17,1,0.408588450000025,FALSE,FALSE
S60,4,100,18,0,0.393760209999982,FALSE,FALSE
S60,10,220,19,1,0.540610595000089,FALSE,FALSE
S60,1,40,20,0,0.351658328000212,FALSE,FALSE
S60,1,40,21,0,0.418220961000316,FALSE,FALSE
S60,5,120,22,0,0.744515321000108,FALSE,FALSE
S60,8,180,23,1,0.827312942999924,FALSE,FALSE
S60,3,80,24,0,0.625388076000036,FALSE,FALSE
S60,1,40,25,0,0.366192773999956,FALSE,FALSE
S60,8,180,26,1,0.742915266999717,FALSE,FALSE
S60,4,100,27,0,0.61438230099975,FALSE,FALSE
S60,3,80,28,0,0.419660542999736,FALSE,FALSE
S60,7,160,29,1,0.652412860999902,FALSE,FALSE
S60,5,120,30,0,1.03945470799999,FALSE,FALSE
S60,4,100,31,0,0.614677923999807,FALSE,FALSE
S60,6,140,32,1,0.99672889500016,FALSE,FALSE
S60,3,80,33,0,0.497261727000023,FALSE,FALSE
S60,8,180,34,1,0.559279323000283,FALSE,FALSE
S60,7,160,35,1,0.582475589999831,FALSE,FALSE
S60,7,160,36,1,0.506052108999938,FALSE,FALSE
S60,2,60,37,0,0.49058630699983,FALSE,FALSE
S60,7,160,38,1,0.491639295999903,FALSE,FALSE
S60,10,220,39,1,0.752329028000077,FALSE,FALSE
S60,9,200,40,1,0.554134110999712,FALSE,FALSE
S60,5,120,41,1,0.927348641999743,FALSE,FALSE
S60,6,140,42,1,1.03252186899999,FALSE,FALSE
S60,6,140,43,0,1.12842718000002,FALSE,FALSE
S60,8,180,44,1,0.628075579999859,FALSE,FALSE
S60,10,220,45,1,0.86389572600001,FALSE,FALSE
S60,6,140,46,0,0.858965708999676,FALSE,FALSE
S60,4,100,47,0,0.353861651999978,FALSE,FALSE
S60,7,160,48,1,0.695074960000056,FALSE,FALSE
S60,3,80,49,0,0.382432771999902,FALSE,FALSE
S60,5,120,50,0,0.684066669000003,FALSE,FALSE
S60,5,120,51,0,0.670021952000297,FALSE,FALSE
S60,7,160,52,1,0.756420964999961,FALSE,FALSE
S60,8,180,53,1,0.453910257999723,FALSE,FALSE
S60,5,120,54,0,0.482225018000008,FALSE,FALSE
S60,2,60,55,1,0.508593067999755,FALSE,FALSE
S60,9,200,56,1,0.554630835000353,FALSE,FALSE
S60,8,180,57,1,0.585468121000304,FALSE,FALSE
S60,8,180,58,1,0.552914821999821,FALSE,FALSE
S60,1,40,59,0,0.353453347999675,FALSE,FALSE
S60,3,80,60,0,0.589769996000086,FALSE,FALSE
S60,4,100,61,0,0.427405456000088,FALSE,FALSE
S60,2,60,62,0,0.369757936000042,TRUE,FALSE
S60,6,140,63,0,1.08333101799963,FALSE,FALSE
S60,2,60,64,0,0.528027181000198,FALSE,FALSE
S60,4,100,65,0,0.548535576999711,FALSE,FALSE
S61,8,180,1,1,1.22433348599952,FALSE,FALSE
S61,2,60,2,0,0.62452219899933,FALSE,FALSE
S61,5,120,3,1,0.597505026999897,FALSE,FALSE
S61,7,160,4,1,1.04086355500021,FALSE,FALSE
S61,4,100,5,0,1.86466284800008,FALSE,FALSE
S61,5,120,6,1,0.562831569999616,FALSE,FALSE
S61,3,80,7,0,0.91499293600009,FALSE,FALSE
S61,3,80,8,0,0.92255961400042,FALSE,FALSE
S61,2,60,9,0,1.05763315699915,FALSE,FALSE
S61,7,160,10,1,1.85256432000006,TRUE,FALSE
S61,5,120,11,1,1.92247623100047,FALSE,FALSE
S61,6,140,12,1,1.22867421200044,FALSE,FALSE
S61,8,180,13,1,0.943795643999692,FALSE,FALSE
S61,3,80,14,0,1.084709492,FALSE,FALSE
S61,4,100,15,0,1.60624363399984,FALSE,FALSE
S61,3,80,16,0,0.943267742999524,FALSE,FALSE
S61,7,160,17,1,0.861226994999925,FALSE,FALSE
S61,3,80,18,0,0.839820408000378,FALSE,FALSE
S61,5,120,19,1,1.28725929699976,FALSE,FALSE
S61,4,100,20,0,1.06085850300042,FALSE,FALSE
S61,7,160,21,1,0.693099500000244,TRUE,FALSE
S61,2,60,22,0,0.700094958000591,FALSE,FALSE
S61,8,180,23,1,0.811479437999878,FALSE,FALSE
S61,4,100,24,1,1.78691945999981,FALSE,FALSE
S61,4,100,25,0,1.56474050599991,FALSE,FALSE
S61,1,40,26,0,0.466414987999997,FALSE,FALSE
S61,3,80,27,0,0.687000593999983,FALSE,FALSE
S61,9,200,28,1,1.06252315500024,FALSE,FALSE
S61,8,180,29,0,0.958478077000109,FALSE,FALSE
S61,7,160,30,1,1.0041915439997,FALSE,FALSE
S61,10,220,31,1,0.948838253000758,FALSE,FALSE
S61,5,120,32,0,1.21899828500045,FALSE,FALSE
S61,8,180,33,1,1.23341078700014,FALSE,FALSE
S61,5,120,34,0,1.48810123200019,FALSE,FALSE
S61,1,40,35,0,0.737076700000216,FALSE,FALSE
S61,2,60,36,0,1.41620034399966,FALSE,FALSE
S61,6,140,37,0,1.07386232199951,FALSE,FALSE
S61,10,220,38,1,0.896742910999819,FALSE,FALSE
S61,1,40,39,0,0.543916714999796,FALSE,FALSE
S61,9,200,40,1,0.830378169000141,FALSE,FALSE
S61,7,160,41,1,0.986702381999748,FALSE,FALSE
S61,7,160,42,1,0.961940463000246,FALSE,FALSE
S61,8,180,43,1,0.785412280999481,FALSE,FALSE
S61,8,180,44,1,1.12870386000031,FALSE,FALSE
S61,9,200,45,1,1.59975396900063,FALSE,FALSE
S61,10,220,46,1,1.87532468100017,TRUE,FALSE
S61,4,100,47,0,1.41581562800002,FALSE,FALSE
S61,8,180,48,1,1.5481093189992,FALSE,FALSE
S61,6,140,49,1,1.35428085199965,FALSE,FALSE
S61,6,140,50,1,0.980616186000589,FALSE,FALSE
S61,3,80,51,0,0.845132233000186,FALSE,FALSE
S61,6,140,52,1,1.37666017900028,FALSE,FALSE
S61,5,120,53,0,1.04927871700056,FALSE,FALSE
S61,5,120,54,0,1.18939619999946,FALSE,FALSE
S61,10,220,55,1,0.733746051000708,FALSE,FALSE
S61,6,140,56,1,2.05789124999956,FALSE,FALSE
S61,7,160,57,1,1.09890063000057,FALSE,FALSE
S61,6,140,58,1,2.19375880100051,FALSE,FALSE
S61,4,100,59,0,0.973269727000115,FALSE,FALSE
S61,6,140,60,1,1.3794090450001,FALSE,FALSE
S61,1,40,61,0,0.629561267000099,FALSE,FALSE
S61,4,100,62,0,1.12483674600026,FALSE,FALSE
S61,9,200,63,1,0.672090533999835,FALSE,FALSE
S61,3,80,64,0,1.27586794900071,TRUE,FALSE
S61,8,180,65,1,0.60765358899971,FALSE,FALSE
S62,6,140,1,0,1.21405536599991,FALSE,FALSE
S62,1,40,2,0,0.828103308999971,FALSE,FALSE
S62,8,180,3,1,1.95480570600012,FALSE,FALSE
S62,10,220,4,1,1.35838861900015,FALSE,FALSE
S62,10,220,5,1,1.08568718100014,FALSE,FALSE
S62,2,60,6,0,0.695819743999891,FALSE,FALSE
S62,5,120,7,0,1.21666136399995,FALSE,FALSE
S62,5,120,8,0,2.16948507000006,FALSE,FALSE
S62,8,180,9,1,0.744487808000031,FALSE,FALSE
S62,3,80,10,0,0.765008623999847,FALSE,FALSE
S62,8,180,11,1,0.702984296000068,FALSE,FALSE
S62,7,160,12,1,0.753817890999926,FALSE,FALSE
S62,7,160,13,1,0.991832361999968,FALSE,FALSE
S62,3,80,14,0,0.721887367000136,FALSE,FALSE
S62,2,60,15,0,0.653451580999899,FALSE,FALSE
S62,1,40,16,0,1.24313942400022,FALSE,FALSE
S62,4,100,17,0,1.77496333099998,FALSE,FALSE
S62,3,80,18,0,0.972056834000341,TRUE,FALSE
S62,4,100,19,0,1.56733190099976,FALSE,FALSE
S62,7,160,20,1,0.829889761999766,FALSE,FALSE
S62,6,140,21,1,0.76326782399974,FALSE,FALSE
S62,3,80,22,0,0.68216314700021,FALSE,FALSE
S62,7,160,23,1,0.884370159999889,FALSE,FALSE
S62,8,180,24,1,1.33469877200014,FALSE,FALSE
S62,6,140,25,1,0.887803626999812,FALSE,FALSE
S62,8,180,26,1,1.7265902879999,FALSE,FALSE
S62,5,120,27,0,1.58300651299987,FALSE,FALSE
S62,3,80,28,0,0.681838316999801,FALSE,FALSE
S62,5,120,29,0,1.51309818600021,FALSE,FALSE
S62,7,160,30,1,1.04601404200002,FALSE,FALSE
S62,1,40,31,0,0.669012323999596,FALSE,FALSE
S62,10,220,32,1,1.73799381500021,FALSE,FALSE
S62,5,120,33,0,1.20300932700002,FALSE,FALSE
S62,4,100,34,0,0.882448874000147,FALSE,FALSE
S62,9,200,35,1,0.841941310000038,TRUE,FALSE
S62,3,80,36,0,0.685417404999953,FALSE,FALSE
S62,3,80,37,0,0.695735422000325,FALSE,FALSE
S62,9,200,38,1,0.730469104999884,FALSE,FALSE
S62,4,100,39,0,1.00544191900008,FALSE,FALSE
S62,2,60,40,0,0.597659396999916,FALSE,FALSE
S62,6,140,41,1,1.66632823600003,FALSE,FALSE
S62,4,100,42,0,0.716939101000207,FALSE,FALSE
S62,5,120,43,0,1.66027393400009,FALSE,FALSE
S62,9,200,44,1,0.673652110999683,FALSE,FALSE
S62,6,140,45,1,1.53665012100009,FALSE,FALSE
S62,7,160,46,0,1.02566704099991,FALSE,FALSE
S62,5,120,47,0,0.689344491000156,FALSE,FALSE
S62,2,60,48,0,0.693376950000129,FALSE,FALSE
S62,7,160,49,1,0.802958418999879,FALSE,FALSE
S62,9,200,50,1,0.733966048000184,FALSE,FALSE
S62,7,160,51,1,0.952200884999911,FALSE,FALSE
S62,4,100,52,0,0.85417286000029,FALSE,FALSE
S62,8,180,53,0,1.72295984599987,FALSE,FALSE
S62,1,40,54,0,0.63806519399986406,FALSE,FALSE
S62,3,80,55,0,0.540607057000216,TRUE,FALSE
S62,6,140,56,0,1.42755348299988,FALSE,FALSE
S62,10,220,57,1,2.13272741600031,FALSE,FALSE
S62,8,180,58,1,0.832771026000046,FALSE,FALSE
S62,8,180,59,1,0.982276546999856,FALSE,FALSE
S62,4,100,60,0,0.668174622000151,FALSE,FALSE
S62,4,100,61,0,0.667171858000074,FALSE,FALSE
S62,6,140,62,0,0.681050309999591,FALSE,FALSE
S62,5,120,63,0,0.660607853999863,FALSE,FALSE
S62,6,140,64,0,0.727723260999937,FALSE,FALSE
S62,6,140,65,0,0.672125841000252,FALSE,FALSE
S63,8,180,1,1,0.696812167000644,FALSE,FALSE
S63,7,160,2,0,1.11857122699985,FALSE,FALSE
S63,2,60,3,0,0.710804227999688,FALSE,FALSE
S63,10,220,4,1,0.635286084000654,FALSE,FALSE
S63,6,140,5,0,0.837465956999949,FALSE,FALSE
S63,1,40,6,0,0.827730545999657,FALSE,FALSE
S63,3,80,7,0,0.879167267000412,FALSE,FALSE
S63,7,160,8,1,0.674167827000019,FALSE,FALSE
S63,6,140,9,0,1.1912325229996,FALSE,FALSE
S63,4,100,10,0,0.902579021000747,FALSE,FALSE
S63,8,180,11,1,0.755046838999988,FALSE,FALSE
S63,4,100,12,0,0.778716040999825,FALSE,FALSE
S63,3,80,13,0,0.934870396000406,FALSE,FALSE
S63,8,180,14,1,0.749861553000301,FALSE,FALSE
S63,8,180,15,1,0.842146272000718,FALSE,FALSE
S63,3,80,16,0,0.756628160999753,FALSE,FALSE
S63,4,100,17,0,1.08814609300043,FALSE,FALSE
S63,6,140,18,0,0.970576647000598,FALSE,FALSE
S63,5,120,19,0,0.927495188000648,FALSE,FALSE
S63,7,160,20,1,0.827786328999537,FALSE,FALSE
S63,3,80,21,0,0.899406028000158,FALSE,FALSE
S63,5,120,22,1,0.900737244999618,FALSE,FALSE
S63,6,140,23,1,0.907923574000051,FALSE,FALSE
S63,6,140,24,1,1.35063033099959,FALSE,FALSE
S63,7,160,25,0,1.02661362300023,FALSE,FALSE
S63,7,160,26,0,1.45184075100042,FALSE,FALSE
S63,5,120,27,1,0.989649930999803,FALSE,FALSE
S63,5,120,28,0,0.903783613000087,FALSE,FALSE
S63,4,100,29,0,0.837283623000076,FALSE,FALSE
S63,10,220,30,1,0.858456943000419,FALSE,FALSE
S63,5,120,31,0,1.22432282499994,TRUE,FALSE
S63,9,200,32,1,0.733537491999414,FALSE,FALSE
S63,4,100,33,0,0.969715879999967,FALSE,FALSE
S63,5,120,34,0,0.886942111999815,FALSE,FALSE
S63,1,40,35,0,0.886253044999648,FALSE,FALSE
S63,8,180,36,1,0.765647090999664,FALSE,FALSE
S63,2,60,37,0,0.787630816000274,FALSE,FALSE
S63,6,140,38,1,1.15108378700006,FALSE,FALSE
S63,10,220,39,1,0.736158681000234,FALSE,FALSE
S63,2,60,40,0,0.869261675000416,FALSE,FALSE
S63,1,40,41,0,0.991734775000623,FALSE,FALSE
S63,4,100,42,0,1.36858269000004,FALSE,FALSE
S63,1,40,43,0,0.713329378000708,FALSE,FALSE
S63,5,120,44,1,0.729412671999853,TRUE,FALSE
S63,3,80,45,0,1.10668999900008,FALSE,FALSE
S63,6,140,46,1,0.843825559999459,FALSE,FALSE
S63,3,80,47,0,1.03904809400046,FALSE,FALSE
S63,3,80,48,0,0.977951407000546,FALSE,FALSE
S63,2,60,49,0,1.13365654499921,FALSE,FALSE
S63,7,160,50,1,0.890325347000726,FALSE,FALSE
S63,4,100,51,1,1.14699198800008,FALSE,FALSE
S63,4,100,52,0,1.19293254199965,FALSE,FALSE
S63,7,160,53,1,0.678925508000248,FALSE,FALSE
S63,8,180,54,1,0.818025896000108,FALSE,FALSE
S63,6,140,55,0,1.15470857200035,FALSE,FALSE
S63,8,180,56,0,1.27741815399986,FALSE,FALSE
S63,5,120,57,0,0.967308814999342,FALSE,FALSE
S63,8,180,58,1,1.30440570399969,FALSE,FALSE
S63,9,200,59,1,1.25969312800044,FALSE,FALSE
S63,7,160,60,0,0.926965929999824,FALSE,FALSE
S63,10,220,61,0,1.35051555900009,FALSE,FALSE
S63,9,200,62,0,1.14392565900016,FALSE,FALSE
S63,3,80,63,0,0.821636059000411,FALSE,FALSE
S63,9,200,64,1,0.696914768999704,FALSE,FALSE
S63,8,180,65,1,1.128353436,FALSE,FALSE
S65,5,120,1,1,1.61534918199959,FALSE,FALSE
S65,8,180,2,1,0.99031169600039,FALSE,FALSE
S65,4,100,3,0,0.596379717999753,TRUE,FALSE
S65,5,120,4,1,0.684793008999804,FALSE,FALSE
S65,6,140,5,1,0.86761887900002,FALSE,FALSE
S65,3,80,6,0,0.444583416000114,FALSE,FALSE
S65,6,140,7,0,1.28190726599996,FALSE,FALSE
S65,7,160,8,1,1.55192806600007,FALSE,FALSE
S65,4,100,9,0,1.39498663299992,FALSE,FALSE
S65,7,160,10,1,1.41432213899998,FALSE,FALSE
S65,5,120,11,1,1.94844117799994,FALSE,FALSE
S65,5,120,12,1,1.18524563200026,FALSE,FALSE
S65,10,220,13,1,0.747870826000053,FALSE,FALSE
S65,7,160,14,1,1.38764920499989,FALSE,FALSE
S65,10,220,15,1,0.889639256999999,FALSE,FALSE
S65,9,200,16,1,0.947579175999635,FALSE,FALSE
S65,3,80,17,0,0.606207246999929,FALSE,FALSE
S65,7,160,18,1,1.47203729000012,FALSE,FALSE
S65,8,180,19,1,0.860696172000189,FALSE,FALSE
S65,1,40,20,0,0.537465922999672,FALSE,FALSE
S65,3,80,21,0,0.591793307999978,FALSE,FALSE
S65,2,60,22,0,0.497891954999886,FALSE,FALSE
S65,8,180,23,1,0.532827963000273,FALSE,FALSE
S65,8,180,24,1,0.573686113999884,FALSE,FALSE
S65,6,140,25,1,1.00371796499985,FALSE,FALSE
S65,6,140,26,1,0.88011786800007,FALSE,FALSE
S65,8,180,27,1,1.38717194599985,FALSE,FALSE
S65,5,120,28,1,0.760393243999715,FALSE,FALSE
S65,4,100,29,0,1.32188940699962,FALSE,FALSE
S65,9,200,30,1,0.995119995000096,FALSE,FALSE
S65,8,180,31,1,0.714310482000201,FALSE,FALSE
S65,7,160,32,1,2.22208994399989,FALSE,FALSE
S65,7,160,33,0,1.09355975900007,FALSE,FALSE
S65,3,80,34,0,0.700875430999986,FALSE,FALSE
S65,3,80,35,0,0.518024405000233,FALSE,FALSE
S65,8,180,36,1,0.580363553000097,FALSE,FALSE
S65,10,220,37,1,1.02136393899991,FALSE,FALSE
S65,4,100,38,0,1.26105537499961,FALSE,FALSE
S65,2,60,39,0,0.659403699999984,FALSE,FALSE
S65,1,40,40,0,0.533312906999981,FALSE,FALSE
S65,6,140,41,1,1.22962533899999,FALSE,FALSE
S65,5,120,42,1,0.619789246999972,FALSE,FALSE
S65,3,80,43,0,0.537715727999966,FALSE,FALSE
S65,10,220,44,1,0.827372153999931,FALSE,FALSE
S65,2,60,45,0,0.656360140999823,FALSE,FALSE
S65,7,160,46,1,0.873275907000334,FALSE,FALSE
S65,1,40,47,0,0.395279209999899,FALSE,FALSE
S65,9,200,48,1,0.657901293000123,FALSE,FALSE
S65,5,120,49,1,0.904696913999942,FALSE,FALSE
S65,7,160,50,1,1.02383956499989,FALSE,FALSE
S65,6,140,51,1,0.708332700000028,FALSE,FALSE
S65,9,200,52,1,0.84775394899998,FALSE,FALSE
S65,6,140,53,1,1.37308829199992,FALSE,FALSE
S65,4,100,54,0,1.13192854099998,FALSE,FALSE
S65,4,100,55,0,2.66811287000019,TRUE,FALSE
S65,8,180,56,1,0.864538635999907,FALSE,FALSE
S65,3,80,57,0,0.560711212000115,FALSE,FALSE
S65,4,100,58,1,1.12681294599997,FALSE,FALSE
S65,6,140,59,1,0.741414890999749,FALSE,FALSE
S65,1,40,60,0,0.497528191000129,FALSE,FALSE
S65,5,120,61,1,0.601485368999874,FALSE,FALSE
S65,2,60,62,0,0.4348894689997,FALSE,FALSE
S65,4,100,63,0,1.62111557300022,FALSE,FALSE
S65,3,80,64,0,0.709391501000027,FALSE,FALSE
S65,5,120,65,1,0.685817250000127,FALSE,FALSE
S66,3,80,1,0,0.6938142099998,FALSE,FALSE
S66,2,60,2,0,0.701169620000655,FALSE,FALSE
S66,1,40,3,0,1.08551171300041,FALSE,FALSE
S66,4,100,4,0,2.05759638600011,FALSE,FALSE
S66,9,200,5,1,2.03832199600038,FALSE,FALSE
S66,6,140,6,0,2.58235750299991,FALSE,FALSE
S66,8,180,7,1,1.06001362400002,FALSE,FALSE
S66,6,140,8,0,2.31953206600065,FALSE,FALSE
S66,5,120,9,1,0.933231545000126,FALSE,FALSE
S66,8,180,10,1,0.925397497000631,FALSE,FALSE
S66,10,220,11,1,1.14410825899995,FALSE,FALSE
S66,4,100,12,1,2.93152764899969,FALSE,FALSE
S66,8,180,13,1,1.29848706800021,FALSE,FALSE
S66,3,80,14,0,1.39416097000048,FALSE,FALSE
S66,5,120,15,1,2.61752185499972,FALSE,FALSE
S66,6,140,16,1,0.990666481000517,FALSE,FALSE
S66,7,160,17,1,2.21110721700006,FALSE,FALSE
S66,4,100,18,0,4.0752824630008,FALSE,FALSE
S66,4,100,19,0,2.94417358299961,FALSE,FALSE
S66,5,120,20,1,1.53465174099983,FALSE,FALSE
S66,5,120,21,1,2.41083819100004,FALSE,FALSE
S66,3,80,22,0,0.96848491000037,FALSE,FALSE
S66,4,100,23,0,1.13843232900035,FALSE,FALSE
S66,6,140,24,1,2.5589500720007,FALSE,FALSE
S66,4,100,25,0,2.50464695699975,FALSE,FALSE
S66,1,40,26,0,0.787078747000123,FALSE,FALSE
S66,6,140,27,1,2.49136378700041,FALSE,FALSE
S66,10,220,28,1,1.84620844700021,FALSE,FALSE
S66,2,60,29,0,1.63937594099934,FALSE,FALSE
S66,9,200,30,0,10.8976457520002,FALSE,TRUE
S66,7,160,31,1,0.970461543999591,FALSE,FALSE
S66,8,180,32,1,0.766766073999861,FALSE,FALSE
S66,1,40,33,0,0.640904574999695,FALSE,FALSE
S66,8,180,34,1,0.584492732000399,FALSE,FALSE
S66,5,120,35,1,2.94858239400037,FALSE,FALSE
S66,10,220,36,1,0.809037817999524,FALSE,FALSE
S66,5,120,37,0,2.20224341300036,FALSE,FALSE
S66,7,160,38,1,1.14161336899997,FALSE,FALSE
S66,2,60,39,0,1.39465080800073,FALSE,FALSE
S66,3,80,40,0,2.13946963299986,FALSE,FALSE
S66,6,140,41,1,1.46946224899966,FALSE,FALSE
S66,6,140,42,1,1.54495987799964,FALSE,FALSE
S66,3,80,43,0,1.49261133100026,FALSE,FALSE
S66,10,220,44,1,0.843926358000317,FALSE,FALSE
S66,3,80,45,0,0.813204615000359,FALSE,FALSE
S66,7,160,46,1,2.33498618799968,FALSE,FALSE
S66,5,120,47,1,0.87667713799965,FALSE,FALSE
S66,4,100,48,0,1.1506052550003,FALSE,FALSE
S66,7,160,49,1,3.60855616199933,FALSE,FALSE
S66,6,140,50,1,2.23353987100018,FALSE,FALSE
S66,2,60,51,0,0.760508191000554,FALSE,FALSE
S66,5,120,52,1,0.964302954000232,FALSE,FALSE
S66,1,40,53,0,0.681104225000126,FALSE,FALSE
S66,7,160,54,1,1.07124345600005,FALSE,FALSE
S66,9,200,55,1,0.788255256999946,FALSE,FALSE
S66,9,200,56,1,0.646528699000555,FALSE,FALSE
S66,8,180,57,1,1.28538725100043,FALSE,FALSE
S66,8,180,58,1,1.43548776900025,FALSE,FALSE
S66,4,100,59,0,2.08314315999996,FALSE,FALSE
S66,3,80,60,0,0.820734786000685,FALSE,FALSE
S66,3,80,61,0,1.402506335,FALSE,FALSE
S66,8,180,62,0,3.30197394599963,TRUE,FALSE
S66,7,160,63,1,2.42168368700004,FALSE,FALSE
S66,7,160,64,1,1.86876662800023,FALSE,FALSE
S66,3,80,65,0,0.931731829001365,FALSE,FALSE
S67,5,120,1,0,1.2831782860012,FALSE,FALSE
S67,5,120,2,0,0.958284422000361,FALSE,FALSE
S67,7,160,3,1,0.999546753999311,FALSE,FALSE
S67,6,140,4,1,0.607703196001239,FALSE,FALSE
S67,9,200,5,1,0.624958045000312,FALSE,FALSE
S67,4,100,6,0,0.833428834001097,FALSE,FALSE
S67,6,140,7,1,0.628918955000699,FALSE,FALSE
S67,1,40,8,0,0.736765597999693,TRUE,FALSE
S67,7,160,9,0,1.47493741000108,FALSE,FALSE
S67,8,180,10,1,1.44406409200019,TRUE,FALSE
S67,8,180,11,1,0.736149761998604,FALSE,FALSE
S67,4,100,12,1,0.745352957999785,FALSE,FALSE
S67,4,100,13,0,0.848267547999058,FALSE,FALSE
S67,8,180,14,1,0.771515337000892,FALSE,FALSE
S67,7,160,15,1,0.972759876000055,FALSE,FALSE
S67,4,100,16,0,0.985074506001183,FALSE,FALSE
S67,2,60,17,0,0.653810521000196,FALSE,FALSE
S67,8,180,18,1,1.0009878009987,FALSE,FALSE
S67,5,120,19,0,1.02415281899994,FALSE,FALSE
S67,6,140,20,1,1.73300205099986,TRUE,FALSE
S67,8,180,21,1,0.763923315998909,FALSE,FALSE
S67,9,200,22,1,0.709517817000233,FALSE,FALSE
S67,5,120,23,1,1.18663038700106,FALSE,FALSE
S67,3,80,24,0,0.573177192000003,FALSE,FALSE
S67,2,60,25,0,0.519862344999638,FALSE,FALSE
S67,4,100,26,0,0.945782910001071,FALSE,FALSE
S67,5,120,27,1,1.3337575050009,FALSE,FALSE
S67,2,60,28,0,0.784245181999722,FALSE,FALSE
S67,6,140,29,1,0.726154582000163,FALSE,FALSE
S67,6,140,30,1,0.625590379000641,FALSE,FALSE
S67,4,100,31,1,0.556435774999045,FALSE,FALSE
S67,3,80,32,0,0.589553330999479,FALSE,FALSE
S67,6,140,33,1,0.747513481999704,FALSE,FALSE
S67,5,120,34,1,1.11785870199856,FALSE,FALSE
S67,8,180,35,1,0.816269260998524,FALSE,FALSE
S67,6,140,36,1,0.690336268000465,FALSE,FALSE
S67,3,80,37,0,0.606358775001354,FALSE,FALSE
S67,7,160,38,1,0.663500079999721,FALSE,FALSE
S67,7,160,39,1,0.472438725000757,FALSE,FALSE
S67,10,220,40,1,0.641461172999698,FALSE,FALSE
S67,6,140,41,1,0.653611188001378,FALSE,FALSE
S67,7,160,42,1,0.696142048000183,FALSE,FALSE
S67,1,40,43,0,0.616428155999529,FALSE,FALSE
S67,5,120,44,1,1.03332319100082,FALSE,FALSE
S67,4,100,45,1,1.01362504799908,FALSE,FALSE
S67,7,160,46,1,0.731752026000322,FALSE,FALSE
S67,5,120,47,0,1.1551358809993,FALSE,FALSE
S67,9,200,48,1,0.794578342000023,FALSE,FALSE
S67,7,160,49,1,0.706493669998963,FALSE,FALSE
S67,3,80,50,0,0.643850110998756,FALSE,FALSE
S67,3,80,51,0,0.636902427999303,FALSE,FALSE
S67,10,220,52,1,0.713982486000532,FALSE,FALSE
S67,2,60,53,0,0.590047124000193,FALSE,FALSE
S67,1,40,54,0,0.598586715999772,FALSE,FALSE
S67,10,220,55,1,0.652047953999499,FALSE,FALSE
S67,10,220,56,1,0.706344047001039,FALSE,FALSE
S67,3,80,57,0,1.08006646600006,TRUE,FALSE
S67,8,180,58,1,0.586080869999932,FALSE,FALSE
S67,1,40,59,0,0.573818053999275,FALSE,FALSE
S67,3,80,60,0,0.864241784000114,FALSE,FALSE
S67,4,100,61,1,0.735165210999185,FALSE,FALSE
S67,9,200,62,1,0.680492796000181,FALSE,FALSE
S67,8,180,63,1,0.693445382999926,FALSE,FALSE
S67,3,80,64,0,0.69667571699938,FALSE,FALSE
S67,5,120,65,1,0.889502067999274,FALSE,FALSE
S68,8,180,1,1,0.985841829999117,FALSE,FALSE
S68,10,220,2,1,0.695655225999872,FALSE,FALSE
S68,1,40,3,0,0.60123865100104,FALSE,FALSE
S68,8,180,4,1,0.579693411000335,TRUE,FALSE
S68,3,80,5,0,0.652114706999782,FALSE,FALSE
S68,9,200,6,1,0.526759454000057,FALSE,FALSE
S68,10,220,7,1,0.685902092998731,FALSE,FALSE
S68,4,100,8,0,1.32746332599891,FALSE,FALSE
S68,2,60,9,0,0.526977671999703,FALSE,FALSE
S68,5,120,10,0,0.987998335000157,FALSE,FALSE
S68,10,220,11,1,0.729738275000273,FALSE,FALSE
S68,6,140,12,0,0.631083480999223,FALSE,FALSE
S68,7,160,13,1,1.21597965299952,FALSE,FALSE
S68,3,80,14,0,0.441737054999976,TRUE,FALSE
S68,1,40,15,0,0.659935259000122,FALSE,FALSE
S68,2,60,16,0,0.550991800999327,FALSE,FALSE
S68,6,140,17,1,0.722521650999624,FALSE,FALSE
S68,1,40,18,0,1.02103482600069,FALSE,FALSE
S68,4,100,19,0,1.31402892299957,FALSE,FALSE
S68,4,100,20,0,1.08345076499972,FALSE,FALSE
S68,10,220,21,1,0.758583959999669,FALSE,FALSE
S68,5,120,22,1,1.05060545500055,FALSE,FALSE
S68,2,60,23,0,0.533933785000045,FALSE,FALSE
S68,9,200,24,1,1.09633400800158,FALSE,FALSE
S68,7,160,25,1,0.840105933000814,FALSE,FALSE
S68,5,120,26,0,0.657662777000951,FALSE,FALSE
S68,7,160,27,0,1.62654151199968,FALSE,FALSE
S68,2,60,28,0,0.589499218000128,FALSE,FALSE
S68,3,80,29,0,0.579239672000767,FALSE,FALSE
S68,3,80,30,0,0.787130536000404,FALSE,FALSE
S68,7,160,31,1,0.823320089000845,FALSE,FALSE
S68,6,140,32,1,0.589962459000162,FALSE,FALSE
S68,3,80,33,0,0.684658344000127,FALSE,FALSE
S68,4,100,34,1,0.715066069000386,FALSE,FALSE
S68,3,80,35,0,0.673820562999026,FALSE,FALSE
S68,8,180,36,0,1.36983613899974,FALSE,FALSE
S68,6,140,37,0,1.4765652060014,TRUE,FALSE
S68,6,140,38,0,0.756334482000966,FALSE,FALSE
S68,8,180,39,1,1.1604380230001,FALSE,FALSE
S68,4,100,40,0,0.658735475999492,FALSE,FALSE
S68,6,140,41,0,1.20598728799996,FALSE,FALSE
S68,4,100,42,0,0.661185263001244,FALSE,FALSE
S68,5,120,43,0,0.890469579000637,FALSE,FALSE
S68,6,140,44,0,0.774348467000891,FALSE,FALSE
S68,5,120,45,0,0.64926514400031,FALSE,FALSE
S68,8,180,46,0,1.49972830799925,FALSE,FALSE
S68,5,120,47,0,0.899690804000784,FALSE,FALSE
S68,5,120,48,0,0.629752080998514,FALSE,FALSE
S68,3,80,49,0,0.596678974001406,FALSE,FALSE
S68,5,120,50,0,1.18215913900167,FALSE,FALSE
S68,4,100,51,0,0.696495141999549,FALSE,FALSE
S68,7,160,52,1,2.20079740199981,FALSE,TRUE
S68,7,160,53,1,0.796898872000384,FALSE,FALSE
S68,9,200,54,1,0.636367085000529,FALSE,FALSE
S68,3,80,55,0,0.808648274998632,FALSE,FALSE
S68,6,140,56,1,0.780994389000625,FALSE,FALSE
S68,9,200,57,1,0.901429946001372,FALSE,FALSE
S68,8,180,58,1,0.942327549000765,FALSE,FALSE
S68,8,180,59,1,1.08978448400012,FALSE,FALSE
S68,7,160,60,1,0.544382603000486,FALSE,FALSE
S68,4,100,61,1,2.00494338499993,FALSE,FALSE
S68,8,180,62,1,0.564536796000539,TRUE,FALSE
S68,1,40,63,0,0.727674487001423,FALSE,FALSE
S68,7,160,64,1,0.798410077999506,FALSE,FALSE
S68,8,180,65,1,1.03310902200064,FALSE,FALSE
S69,5,120,1,0,1.2186390939969,FALSE,FALSE
S69,4,100,2,0,1.13678013100434,FALSE,FALSE
S69,10,220,3,1,0.817572922998806,FALSE,FALSE
S69,4,100,4,0,1.02579619799508,FALSE,FALSE
S69,7,160,5,1,0.850200859000324,FALSE,FALSE
S69,5,120,6,0,1.3733513929983,FALSE,FALSE
S69,8,180,7,1,0.989470688000438,FALSE,FALSE
S69,4,100,8,0,1.35483468700113,FALSE,FALSE
S69,8,180,9,1,0.991154868999729,FALSE,FALSE
S69,7,160,10,1,1.28316499200446,FALSE,FALSE
S69,7,160,11,1,1.0275489859996,FALSE,FALSE
S69,9,200,12,1,1.30991228199855,FALSE,FALSE
S69,7,160,13,0,1.51374435699836,TRUE,FALSE
S69,6,140,14,0,1.04489543200179,FALSE,FALSE
S69,8,180,15,1,1.24356495899701,FALSE,FALSE
S69,5,120,16,0,0.77578431800066,FALSE,FALSE
S69,3,80,17,0,0.937506002999726,FALSE,FALSE
S69,4,100,18,0,1.01280055999814,FALSE,FALSE
S69,2,60,19,0,0.752914334996603,FALSE,FALSE
S69,7,160,20,1,0.926554484001826,FALSE,FALSE
S69,8,180,21,1,1.22539166500064,FALSE,FALSE
S69,8,180,22,1,0.814915973001916,FALSE,FALSE
S69,9,200,23,1,0.707680685001833,FALSE,FALSE
S69,5,120,24,0,0.966746162004711,FALSE,FALSE
S69,5,120,25,0,1.1139840859978,FALSE,FALSE
S69,7,160,26,1,0.887963733999641,FALSE,FALSE
S69,4,100,27,0,1.09791985699849,FALSE,FALSE
S69,5,120,28,1,1.86174230300094,TRUE,TRUE
S69,6,140,29,1,1.13268914600485,FALSE,FALSE
S69,6,140,30,1,1.39514260000578,FALSE,FALSE
S69,4,100,31,0,0.844515748001868,FALSE,FALSE
S69,4,100,32,0,0.841403203005029,FALSE,FALSE
S69,6,140,33,1,2.00021641799685,TRUE,TRUE
S69,7,160,34,1,0.960280487001,FALSE,FALSE
S69,1,40,35,0,1.02183398400666,FALSE,FALSE
S69,4,100,36,0,1.10775870100042,FALSE,FALSE
S69,3,80,37,0,0.787481110004592,FALSE,FALSE
S69,8,180,38,1,0.808959399000742,FALSE,FALSE
S69,3,80,39,0,0.988584598999296,FALSE,FALSE
S69,3,80,40,0,1.4398970090042,FALSE,FALSE
S69,2,60,41,0,0.804053189000115,FALSE,FALSE
S69,2,60,42,0,1.13436797600298,FALSE,FALSE
S69,10,220,43,1,0.954742289002752,FALSE,FALSE
S69,3,80,44,0,0.936030251003103,FALSE,FALSE
S69,10,220,45,1,0.958719315000053,FALSE,FALSE
S69,8,180,46,1,1.33197820599889,FALSE,FALSE
S69,6,140,47,1,1.10631625099631,FALSE,FALSE
S69,3,80,48,0,1.02613798200036,FALSE,FALSE
S69,6,140,49,1,1.14400592699531,FALSE,FALSE
S69,9,200,50,1,1.00856900899817,FALSE,FALSE
S69,1,40,51,0,1.00914288499916,FALSE,FALSE
S69,5,120,52,1,0.991180213997723,FALSE,FALSE
S69,9,200,53,1,0.680545336996147,FALSE,FALSE
S69,10,220,54,1,0.805024797002261,FALSE,FALSE
S69,6,140,55,1,0.987579330998415,FALSE,FALSE
S69,1,40,56,0,0.943032252005651,FALSE,FALSE
S69,8,180,57,1,0.961770547000924,FALSE,FALSE
S69,1,40,58,0,0.879217672998493,FALSE,FALSE
S69,3,80,59,0,1.11079274999793,FALSE,FALSE
S69,7,160,60,1,0.848423613002524,FALSE,FALSE
S69,3,80,61,0,1.91013623299659,TRUE,TRUE
S69,5,120,62,1,0.901993725005013,FALSE,FALSE
S69,2,60,63,0,0.992109298000287,FALSE,FALSE
S69,6,140,64,1,0.807642510000733,TRUE,FALSE
S69,5,120,65,1,1.14038853600505,FALSE,FALSE
S70,4,100,1,0,0.485943061001308,FALSE,FALSE
S70,5,120,2,1,0.47711343899573,FALSE,FALSE
S70,10,220,3,1,0.744243115004792,FALSE,FALSE
S70,9,200,4,0,0.392689261003397,FALSE,FALSE
S70,6,140,5,0,0.828116478005541,FALSE,FALSE
S70,6,140,6,1,0.408524787002534,FALSE,FALSE
S70,1,40,7,0,0.382295825998881,FALSE,FALSE
S70,7,160,8,1,0.578832061000867,FALSE,FALSE
S70,7,160,9,1,0.553338134996011,FALSE,FALSE
S70,8,180,10,0,0.656832687003771,FALSE,FALSE
S70,3,80,11,1,0.380574498005444,FALSE,FALSE
S70,4,100,12,0,0.616416834003758,FALSE,FALSE
S70,6,140,13,0,0.539499280996097,FALSE,FALSE
S70,9,200,14,1,0.847508319995541,FALSE,FALSE
S70,8,180,15,0,0.932405211999139,TRUE,TRUE
S70,7,160,16,0,0.415065490997222,TRUE,FALSE
S70,2,60,17,0,0.600674567001988,FALSE,FALSE
S70,8,180,18,1,0.661232994003512,FALSE,FALSE
S70,5,120,19,0,0.481680299999425,FALSE,FALSE
S70,4,100,20,0,0.563875938001729,FALSE,FALSE
S70,4,100,21,0,0.518554297996161,FALSE,FALSE
S70,7,160,22,0,0.671530217005056,FALSE,FALSE
S70,5,120,23,0,0.465778922996833,FALSE,FALSE
S70,7,160,24,0,0.575359259994002,FALSE,FALSE
S70,6,140,25,0,0.629646599001717,FALSE,FALSE
S70,3,80,26,0,0.512964515997737,FALSE,FALSE
S70,10,220,27,1,0.528928512001585,FALSE,FALSE
S70,5,120,28,0,0.573882719996618,FALSE,FALSE
S70,1,40,29,0,0.546092303004116,FALSE,FALSE
S70,3,80,30,0,0.599321991998295,FALSE,FALSE
S70,3,80,31,0,0.408376427003532,FALSE,FALSE
S70,6,140,32,1,0.619541790998483,FALSE,FALSE
S70,7,160,33,0,0.594641732001037,FALSE,FALSE
S70,9,200,34,1,0.541350434003107,FALSE,FALSE
S70,7,160,35,0,0.707298788001935,FALSE,FALSE
S70,3,80,36,0,0.511685429002682,FALSE,FALSE
S70,7,160,37,1,0.538887568000064,FALSE,FALSE
S70,4,100,38,0,0.449940850994608,FALSE,FALSE
S70,8,180,39,1,0.618583762996423,FALSE,FALSE
S70,9,200,40,1,0.659595447003085,FALSE,FALSE
S70,3,80,41,0,0.426804759998049,FALSE,FALSE
S70,1,40,42,0,0.556312904998777,FALSE,FALSE
S70,6,140,43,1,0.648741864999465,FALSE,FALSE
S70,8,180,44,1,0.463967416006199,TRUE,FALSE
S70,4,100,45,0,0.435078937000071,FALSE,FALSE
S70,10,220,46,1,0.46429004699894,FALSE,FALSE
S70,2,60,47,0,0.637568400998134,FALSE,FALSE
S70,4,100,48,0,0.8108466259946,FALSE,FALSE
S70,1,40,49,0,0.443671119995997,FALSE,FALSE
S70,2,60,50,0,0.514669579999463,FALSE,FALSE
S70,10,220,51,1,0.558192236996547,FALSE,FALSE
S70,4,100,52,0,0.929491685004905,TRUE,TRUE
S70,3,80,53,0,0.410114717000397,FALSE,FALSE
S70,5,120,54,0,0.521439641001052,FALSE,FALSE
S70,3,80,55,0,0.356844659996568,FALSE,FALSE
S70,8,180,56,1,0.605862394004362,FALSE,FALSE
S70,8,180,57,1,0.539213464995555,FALSE,FALSE
S70,2,60,58,0,0.526931403001072,FALSE,FALSE
S70,5,120,59,0,0.604364272003295,FALSE,FALSE
S70,5,120,60,0,0.545022971993603,FALSE,FALSE
S70,6,140,61,1,0.49475730699487,FALSE,FALSE
S70,5,120,62,0,0.470028691001062,FALSE,FALSE
S70,8,180,63,0,0.68843319699954,FALSE,FALSE
S70,6,140,64,1,0.501095651001378,FALSE,FALSE
S70,4,100,65,0,0.548605921998387,FALSE,FALSE
S71,4,100,1,0,1.19351888499932,FALSE,TRUE
S71,10,220,2,1,0.609619660000135,FALSE,FALSE
S71,5,120,3,1,0.623283615000219,FALSE,FALSE
S71,3,80,4,0,0.566403556000296,FALSE,FALSE
S71,6,140,5,1,0.489984019000076,FALSE,FALSE
S71,7,160,6,1,0.524761392999608,FALSE,FALSE
S71,7,160,7,1,0.536792332999539,FALSE,FALSE
S71,6,140,8,1,0.545964198000547,FALSE,FALSE
S71,5,120,9,1,0.935086411000157,FALSE,FALSE
S71,6,140,10,1,0.466418656000315,FALSE,FALSE
S71,3,80,11,0,0.587523187999977,FALSE,FALSE
S71,5,120,12,1,0.615422787000171,FALSE,FALSE
S71,5,120,13,1,0.705145443999754,FALSE,FALSE
S71,7,160,14,1,0.695367359999182,FALSE,FALSE
S71,1,40,15,0,0.676667552999788,FALSE,FALSE
S71,10,220,16,1,0.656314982999902,FALSE,FALSE
S71,9,200,17,1,0.58194112000001,FALSE,FALSE
S71,6,140,18,1,1.01664610700027,FALSE,FALSE
S71,8,180,19,1,0.48914701800004,FALSE,FALSE
S71,4,100,20,0,1.20967318800012,FALSE,TRUE
S71,6,140,21,1,0.641503198999999,FALSE,FALSE
S71,6,140,22,1,0.80718391299979,FALSE,FALSE
S71,9,200,23,1,0.599366518000352,FALSE,FALSE
S71,4,100,24,0,0.664514365000286,FALSE,FALSE
S71,3,80,25,0,0.594378669999969,FALSE,FALSE
S71,3,80,26,0,0.576986078000118,FALSE,FALSE
S71,10,220,27,1,0.483443090000037,FALSE,FALSE
S71,3,80,28,0,0.626669962000051,FALSE,FALSE
S71,2,60,29,0,0.56170943699999,FALSE,FALSE
S71,5,120,30,1,0.763733914999648,FALSE,FALSE
S71,10,220,31,1,0.645377492999614,FALSE,FALSE
S71,8,180,32,1,0.510609800000566,FALSE,FALSE
S71,8,180,33,1,0.517814885999542,FALSE,FALSE
S71,7,160,34,1,1.26953337199939,TRUE,TRUE
S71,3,80,35,0,0.666572189999897,FALSE,FALSE
S71,8,180,36,1,0.408295891000307,FALSE,FALSE
S71,3,80,37,0,0.702812405000259,FALSE,FALSE
S71,4,100,38,0,0.84610584299935,FALSE,FALSE
S71,5,120,39,1,0.81345638699986,FALSE,FALSE
S71,4,100,40,0,1.32778924700051,FALSE,TRUE
S71,8,180,41,1,0.599878416000138,FALSE,FALSE
S71,5,120,42,1,1.3025390519997,TRUE,TRUE
S71,2,60,43,0,0.630277054000544,FALSE,FALSE
S71,3,80,44,0,0.699640992000241,FALSE,FALSE
S71,7,160,45,1,0.622019049000301,FALSE,FALSE
S71,8,180,46,1,0.407271545000185,FALSE,FALSE
S71,9,200,47,1,0.743065992999618,FALSE,FALSE
S71,2,60,48,0,0.772804266000094,FALSE,FALSE
S71,8,180,49,1,0.566446453999561,FALSE,FALSE
S71,1,40,50,1,0.600806289000502,FALSE,FALSE
S71,7,160,51,1,0.34156970299955,TRUE,TRUE
S71,9,200,52,1,0.633190362000278,FALSE,FALSE
S71,7,160,53,1,0.52430864300004,FALSE,FALSE
S71,5,120,54,1,0.811757395000313,FALSE,FALSE
S71,8,180,55,1,0.684040570000434,FALSE,FALSE
S71,6,140,56,1,1.69182272799935,FALSE,TRUE
S71,1,40,57,0,0.708628595999471,FALSE,FALSE
S71,1,40,58,0,0.54707766699994,FALSE,FALSE
S71,4,100,59,0,0.680981941000027,FALSE,FALSE
S71,7,160,60,1,0.679382364000048,FALSE,FALSE
S71,4,100,61,0,0.787720954999713,FALSE,FALSE
S71,2,60,62,0,1.05930983000053,FALSE,FALSE
S71,6,140,63,1,0.674570428999687,FALSE,FALSE
S71,4,100,64,0,0.72500411099918,FALSE,FALSE
S71,4,100,65,0,0.593977235999773,FALSE,FALSE
S72,5,120,1,0,1.18205035500068,FALSE,FALSE
S72,1,40,2,0,0.691526358999909,FALSE,FALSE
S72,8,180,3,1,0.63339973499933,FALSE,FALSE
S72,2,60,4,0,0.553342518000136,FALSE,FALSE
S72,5,120,5,1,0.429034147999118,TRUE,FALSE
S72,8,180,6,1,0.77043889900051,FALSE,FALSE
S72,5,120,7,0,1.4659092740003,TRUE,TRUE
S72,6,140,8,1,1.02411707300053,FALSE,FALSE
S72,9,200,9,1,0.699254547000237,FALSE,FALSE
S72,8,180,10,1,0.815690268000253,FALSE,FALSE
S72,4,100,11,0,0.928338081001129,FALSE,FALSE
S72,3,80,12,0,0.599099400000341,FALSE,FALSE
S72,3,80,13,0,0.599937476999912,FALSE,FALSE
S72,8,180,14,1,0.794914259000507,FALSE,FALSE
S72,3,80,15,0,0.486612530999992,FALSE,FALSE
S72,6,140,16,1,0.621737519999442,FALSE,FALSE
S72,6,140,17,1,0.697070911999617,FALSE,FALSE
S72,4,100,18,0,0.81126754700017,FALSE,FALSE
S72,2,60,19,0,0.462293430999125,FALSE,FALSE
S72,10,220,20,1,0.590866258999085,FALSE,FALSE
S72,6,140,21,1,1.10202150200166,FALSE,FALSE
S72,5,120,22,1,1.0052060149992,FALSE,FALSE
S72,10,220,23,1,0.637824879999243,FALSE,FALSE
S72,2,60,24,0,0.542358044998764,FALSE,FALSE
S72,2,60,25,0,0.472857963999559,FALSE,FALSE
S72,6,140,26,1,0.971496407000814,FALSE,FALSE
S72,3,80,27,0,0.539429372000086,FALSE,FALSE
S72,4,100,28,0,0.682731933999094,FALSE,FALSE
S72,5,120,29,1,0.874968099999023,FALSE,FALSE
S72,7,160,30,1,0.786982613999498,FALSE,FALSE
S72,8,180,31,1,0.771185137999055,FALSE,FALSE
S72,10,220,32,1,0.618442678000065,FALSE,FALSE
S72,5,120,33,1,0.923703196000133,FALSE,FALSE
S72,4,100,34,0,0.850924140000643,FALSE,FALSE
S72,4,100,35,0,0.562376538000535,FALSE,FALSE
S72,9,200,36,1,0.603786714000307,FALSE,FALSE
S72,4,100,37,0,0.67140556799859,FALSE,FALSE
S72,6,140,38,1,0.957095371999458,FALSE,FALSE
S72,8,180,39,1,0.666612969000198,FALSE,FALSE
S72,8,180,40,1,0.606712722001248,FALSE,FALSE
S72,7,160,41,1,0.701469820000057,FALSE,FALSE
S72,6,140,42,1,1.07781185199929,FALSE,FALSE
S72,7,160,43,1,1.01161099400088,FALSE,FALSE
S72,3,80,44,0,0.445443069998873,FALSE,FALSE
S72,5,120,45,0,0.902162481001142,FALSE,FALSE
S72,3,80,46,0,0.470328003000759,FALSE,FALSE
S72,9,200,47,1,0.525815298999078,FALSE,FALSE
S72,9,200,48,1,0.522964211999351,FALSE,FALSE
S72,7,160,49,1,0.660816635001538,FALSE,FALSE
S72,10,220,50,1,0.672658334000516,FALSE,FALSE
S72,3,80,51,0,0.609540891000506,FALSE,FALSE
S72,7,160,52,1,0.621554411000034,FALSE,FALSE
S72,4,100,53,0,0.67061842899966,FALSE,FALSE
S72,8,180,54,1,0.62020955799926,FALSE,FALSE
S72,6,140,55,1,0.681524327999796,FALSE,FALSE
S72,1,40,56,0,0.529850104001525,FALSE,FALSE
S72,4,100,57,0,0.73974766900028,FALSE,FALSE
S72,7,160,58,1,0.746807244000593,FALSE,FALSE
S72,7,160,59,1,0.620439276999605,FALSE,FALSE
S72,1,40,60,0,0.561537998999484,FALSE,FALSE
S72,3,80,61,0,0.569304626998928,FALSE,FALSE
S72,1,40,62,0,0.37988029600092,FALSE,FALSE
S72,7,160,63,1,0.532624014000248,FALSE,FALSE
S72,5,120,64,1,0.900525377999656,FALSE,FALSE
S72,5,120,65,1,0.570548605999647,TRUE,FALSE
S73,5,120,1,0,1.41073443400001,FALSE,FALSE
S73,7,160,2,1,1.83576584100001,FALSE,FALSE
S73,8,180,3,1,0.75483727400001,FALSE,FALSE
S73,7,160,4,1,1.01841001999992,FALSE,FALSE
S73,7,160,5,0,2.59467294399997,FALSE,FALSE
S73,2,60,6,0,0.488433948999955,TRUE,FALSE
S73,3,80,7,0,0.673835159999953,FALSE,FALSE
S73,5,120,8,0,0.891579683999908,FALSE,FALSE
S73,8,180,9,0,2.46962689099996,FALSE,FALSE
S73,3,80,10,0,0.764617126000076,FALSE,FALSE
S73,2,60,11,0,0.948070346000122,FALSE,FALSE
S73,4,100,12,0,0.939431008000156,FALSE,FALSE
S73,2,60,13,0,0.811977181999964,FALSE,FALSE
S73,6,140,14,1,1.07500381999989,FALSE,FALSE
S73,10,220,15,1,1.23564212999986,FALSE,FALSE
S73,5,120,16,0,1.68257209500007,FALSE,FALSE
S73,3,80,17,0,0.764327099000184,FALSE,FALSE
S73,9,200,18,1,1.10583088699991,FALSE,FALSE
S73,8,180,19,0,2.60220155999991,FALSE,FALSE
S73,5,120,20,0,0.974732984999946,FALSE,FALSE
S73,6,140,21,0,1.60597310399999,FALSE,FALSE
S73,2,60,22,0,0.792808753999907,FALSE,FALSE
S73,9,200,23,0,2.11310783399995,FALSE,FALSE
S73,10,220,24,1,0.862345319000042,FALSE,FALSE
S73,7,160,25,1,1.99998956800005,FALSE,FALSE
S73,3,80,26,0,0.682253499999888,FALSE,FALSE
S73,8,180,27,0,1.98460806399999,FALSE,FALSE
S73,6,140,28,1,2.07210395199991,FALSE,FALSE
S73,7,160,29,0,2.19119987099998,FALSE,FALSE
S73,4,100,30,0,0.70040837900001,FALSE,FALSE
S73,4,100,31,0,0.631424162999792,FALSE,FALSE
S73,5,120,32,0,0.812663082999961,FALSE,FALSE
S73,5,120,33,0,1.20945082600019,FALSE,FALSE
S73,9,200,34,1,1.15884089500014,FALSE,FALSE
S73,1,40,35,0,0.79551714299987,FALSE,FALSE
S73,7,160,36,0,1.34589659900007,FALSE,FALSE
S73,9,200,37,0,1.50191177900001,FALSE,FALSE
S73,3,80,38,0,0.716609436999988,FALSE,FALSE
S73,7,160,39,0,0.999530804999949,FALSE,FALSE
S73,5,120,40,0,0.999720889999935,FALSE,FALSE
S73,4,100,41,0,0.834156248999989,FALSE,FALSE
S73,6,140,42,0,1.37114512999983,FALSE,FALSE
S73,4,100,43,0,0.655934451000121,FALSE,FALSE
S73,8,180,44,1,1.73368364399994,FALSE,FALSE
S73,10,220,45,1,1.10857159600005,FALSE,FALSE
S73,4,100,46,0,0.506477878999931,FALSE,FALSE
S73,3,80,47,0,0.647868698999901,FALSE,FALSE
S73,3,80,48,0,0.705783373000031,FALSE,FALSE
S73,6,140,49,0,2.80651188100001,FALSE,FALSE
S73,3,80,50,0,0.74028212200005294,FALSE,FALSE
S73,4,100,51,0,0.65165078799987,FALSE,FALSE
S73,7,160,52,0,0.945671009999842,FALSE,FALSE
S73,6,140,53,1,0.864351704000001,FALSE,FALSE
S73,6,140,54,0,1.36986953799988,FALSE,FALSE
S73,8,180,55,1,1.30484810999997,FALSE,FALSE
S73,8,180,56,1,0.784177,FALSE,FALSE
S73,1,40,57,0,1.04845553899986,TRUE,FALSE
S73,1,40,58,0,0.835595262999959,FALSE,FALSE
S73,8,180,59,0,1.11651612700007,FALSE,FALSE
S73,4,100,60,0,0.802163636000159,FALSE,FALSE
S73,10,220,61,1,2.13463702900003,FALSE,FALSE
S73,6,140,62,1,1.84910097599982,FALSE,FALSE
S73,5,120,63,0,1.48601697499998,FALSE,FALSE
S73,1,40,64,0,0.85313178399997,FALSE,FALSE
S73,5,120,65,0,1.17669054500016,FALSE,FALSE
S74,3,80,1,0,0.632655500000055,FALSE,FALSE
S74,3,80,2,0,0.806437179000113,TRUE,FALSE
S74,1,40,3,0,0.866197171000294,FALSE,FALSE
S74,8,180,4,1,0.857912014000249,FALSE,FALSE
S74,6,140,5,0,1.90342792199999,TRUE,FALSE
S74,9,200,6,1,1.97549779300016,FALSE,FALSE
S74,8,180,7,1,0.906708504000107,FALSE,FALSE
S74,3,80,8,0,0.699641772000177,FALSE,FALSE
S74,6,140,9,0,1.05394092699999,FALSE,FALSE
S74,3,80,10,0,0.586974135999753,FALSE,FALSE
S74,5,120,11,0,1.54765910399965,FALSE,FALSE
S74,5,120,12,1,0.985418484000093,FALSE,FALSE
S74,3,80,13,0,0.664918989999933,FALSE,FALSE
S74,7,160,14,1,0.833285342000181,FALSE,FALSE
S74,7,160,15,1,0.91415955399998,FALSE,FALSE
S74,1,40,16,0,0.878848371999993,FALSE,FALSE
S74,4,100,17,0,0.820483720000084,FALSE,FALSE
S74,2,60,18,0,0.709272887999759,FALSE,FALSE
S74,9,200,19,1,0.855488750000404,FALSE,FALSE
S74,10,220,20,1,0.858956985999612,FALSE,FALSE
S74,6,140,21,1,0.884474016999775,FALSE,FALSE
S74,4,100,22,0,1.83073907299968,FALSE,FALSE
S74,5,120,23,1,1.50546417700025,FALSE,FALSE
S74,8,180,24,1,0.726317644999654,FALSE,FALSE
S74,7,160,25,1,1.51519859400014,FALSE,FALSE
S74,5,120,26,0,1.83852614899934,FALSE,FALSE
S74,2,60,27,0,0.603501071999744,FALSE,FALSE
S74,2,60,28,0,0.670604218000335,FALSE,FALSE
S74,7,160,29,1,0.718780440000046,FALSE,FALSE
S74,9,200,30,1,0.575719987000411,FALSE,FALSE
S74,2,60,31,0,0.683947808000084,FALSE,FALSE
S74,6,140,32,1,0.652136939000229,FALSE,FALSE
S74,5,120,33,0,1.31599772200025,FALSE,FALSE
S74,6,140,34,1,1.22358044999964,FALSE,FALSE
S74,6,140,35,1,0.955883679999715,FALSE,FALSE
S74,1,40,36,0,0.410633965999295,FALSE,FALSE
S74,5,120,37,1,0.853352594999706,FALSE,FALSE
S74,10,220,38,1,0.685428787999626,FALSE,FALSE
S74,4,100,39,0,1.209862488,FALSE,FALSE
S74,3,80,40,0,0.620842391999759,FALSE,FALSE
S74,8,180,41,1,1.14460982000037,FALSE,FALSE
S74,1,40,42,0,0.442996264000612,FALSE,FALSE
S74,3,80,43,0,0.660260857000139,FALSE,FALSE
S74,4,100,44,0,1.1453737970005,FALSE,FALSE
S74,7,160,45,1,0.701857842000209,FALSE,FALSE
S74,3,80,46,0,0.630931839000368,FALSE,FALSE
S74,10,220,47,1,0.824093033999816,FALSE,FALSE
S74,5,120,48,1,1.22090236500026,FALSE,FALSE
S74,4,100,49,0,1.07724259399947,FALSE,FALSE
S74,10,220,50,1,0.681870043999879,FALSE,FALSE
S74,7,160,51,1,1.11878615000023,FALSE,FALSE
S74,6,140,52,1,0.688443514999562,FALSE,FALSE
S74,7,160,53,1,1.02323340900057,FALSE,FALSE
S74,4,100,54,0,1.02154698599952,FALSE,FALSE
S74,4,100,55,0,0.851455208000516,FALSE,FALSE
S74,6,140,56,1,0.819069608999598,FALSE,FALSE
S74,8,180,57,1,0.645745188999172,FALSE,FALSE
S74,4,100,58,0,0.579576654000448,FALSE,FALSE
S74,8,180,59,1,0.772187574999407,FALSE,FALSE
S74,5,120,60,0,1.44420402099968,FALSE,FALSE
S74,7,160,61,0,1.45529517999967,FALSE,FALSE
S74,8,180,62,0,0.965769005000766,FALSE,FALSE
S74,8,180,63,0,2.47527542100033,TRUE,TRUE
S74,9,200,64,1,1.02950819099988,FALSE,FALSE
S74,3,80,65,0,0.531749138000123,TRUE,FALSE
S75,8,180,1,1,1.06641555799979,FALSE,FALSE
S75,3,80,2,0,0.875582587999816,FALSE,FALSE
S75,5,120,3,1,1.916934416,FALSE,FALSE
S75,3,80,4,0,0.836512890999074,FALSE,FALSE
S75,7,160,5,1,0.889929365999706,FALSE,FALSE
S75,4,100,6,0,1.10150309999881,FALSE,FALSE
S75,5,120,7,1,1.30063226100174,FALSE,FALSE
S75,5,120,8,1,1.60552691500015,FALSE,FALSE
S75,2,60,9,0,0.85681517500052,FALSE,FALSE
S75,3,80,10,0,0.833666061000258,FALSE,FALSE
S75,8,180,11,0,0.852559095999823,FALSE,FALSE
S75,5,120,12,0,2.23320580400105,FALSE,FALSE
S75,9,200,13,1,0.887074179001502,FALSE,FALSE
S75,4,100,14,0,1.38872138700026,FALSE,FALSE
S75,4,100,15,1,3.54019005800001,FALSE,FALSE
S75,10,220,16,1,0.877558782000051,TRUE,FALSE
S75,7,160,17,1,0.833048268001221,FALSE,FALSE
S75,5,120,18,1,1.69842060699921,FALSE,FALSE
S75,8,180,19,1,1.03879479399984,FALSE,FALSE
S75,7,160,20,1,1.72958719300004,FALSE,FALSE
S75,7,160,21,1,0.776230235000185,FALSE,FALSE
S75,3,80,22,0,0.936105871998734,FALSE,FALSE
S75,9,200,23,1,0.934841434000191,FALSE,FALSE
S75,3,80,24,0,0.856230164999943,FALSE,FALSE
S75,4,100,25,0,2.29757110699938,FALSE,FALSE
S75,6,140,26,0,1.33668598300028,FALSE,FALSE
S75,7,160,27,1,1.02473660800024,FALSE,FALSE
S75,10,220,28,1,0.996782056001393,FALSE,FALSE
S75,9,200,29,1,1.17476544900092,FALSE,FALSE
S75,6,140,30,1,1.7205389239989,FALSE,FALSE
S75,10,220,31,1,1.07339090200003,FALSE,FALSE
S75,2,60,32,0,0.7982653020008,FALSE,FALSE
S75,4,100,33,0,1.26912885000093,FALSE,FALSE
S75,3,80,34,0,1.05582540899923,FALSE,FALSE
S75,3,80,35,0,0.758710415000678,FALSE,FALSE
S75,1,40,36,0,0.954038359999686,FALSE,FALSE
S75,9,200,37,1,0.783484765001049,FALSE,FALSE
S75,8,180,38,1,0.843698029999359,FALSE,FALSE
S75,1,40,39,0,0.938721139000336,FALSE,FALSE
S75,2,60,40,0,1.31118122999942,TRUE,FALSE
S75,6,140,41,1,1.62088052900071,FALSE,FALSE
S75,6,140,42,1,1.13803480100069,FALSE,FALSE
S75,8,180,43,1,0.978546529000596,FALSE,FALSE
S75,10,220,44,1,1.01118182200116,FALSE,FALSE
S75,5,120,45,1,1.21176431899949,FALSE,FALSE
S75,4,100,46,0,1.66140707199884,FALSE,FALSE
S75,2,60,47,0,0.835247548000552,FALSE,FALSE
S75,7,160,48,1,1.49998620199949,FALSE,FALSE
S75,8,180,49,1,0.961540042000706,FALSE,FALSE
S75,4,100,50,0,2.20423794799899,FALSE,FALSE
S75,7,160,51,1,2.3478578560007,FALSE,FALSE
S75,6,140,52,1,0.969996421001269,FALSE,FALSE
S75,4,100,53,0,1.71690020599999,FALSE,FALSE
S75,8,180,54,1,0.906457212000532,FALSE,FALSE
S75,8,180,55,1,1.30039980899892,TRUE,FALSE
S75,6,140,56,0,2.79616569400059,FALSE,FALSE
S75,5,120,57,0,2.0702381250012,FALSE,FALSE
S75,7,160,58,1,2.77307862099951,FALSE,FALSE
S75,1,40,59,0,0.783284672999798,FALSE,FALSE
S75,5,120,60,1,1.38957903000119,FALSE,FALSE
S75,6,140,61,1,2.05423185400105,FALSE,FALSE
S75,3,80,62,0,0.936842062999858,FALSE,FALSE
S75,6,140,63,1,2.76370027499979,FALSE,FALSE
S75,1,40,64,0,0.777330568000252,FALSE,FALSE
S75,8,180,65,1,0.903206902999955,FALSE,FALSE
