Subject,Target,Distance,DistanceLog,Trial,Response,RT
S51,4,100,4.60517018598809,1,0,0.790394784999989
S51,5,120,4.78749174278205,2,1,0.687736751000102
S51,2,60,4.0943445622221,3,0,0.717930596000315
S51,4,100,4.60517018598809,4,0,1.02271374500015
S51,4,100,4.60517018598809,5,0,0.961040919999959
S51,3,80,4.38202663467388,6,1,1.12060629899997
S51,3,80,4.38202663467388,7,0,0.825481502999992
S51,9,200,5.29831736654804,8,1,0.69818158299995
S51,7,160,5.07517381523383,9,1,0.788563781999983
S51,3,80,4.38202663467388,10,0,0.72243246700009
S51,2,60,4.0943445622221,11,0,0.708133237999846
S51,8,180,5.19295685089021,12,1,0.692446498000209
S51,10,220,5.39362754635236,13,1,0.833300621000035
S51,9,200,5.29831736654804,14,1,1.35379572800002
S51,8,180,5.19295685089021,15,0,1.12030877500001
S51,3,80,4.38202663467388,16,0,0.682753717000196
S51,7,160,5.07517381523383,17,0,1.33360172999983
S51,8,180,5.19295685089021,18,1,0.763614424000025
S51,8,180,5.19295685089021,19,0,1.48230701900002
S51,7,160,5.07517381523383,20,1,0.802567908999663
S51,1,40,3.68887945411394,21,0,0.67030783600012
S51,1,40,3.68887945411394,22,0,0.71517790300004
S51,6,140,4.9416424226093,23,0,0.864070379999703
S51,6,140,4.9416424226093,24,0,0.85700774399993
S51,10,220,5.39362754635236,25,1,0.70576638600005
S51,5,120,4.78749174278205,26,0,0.880849910000052
S51,8,180,5.19295685089021,27,1,0.755194763999953
S51,1,40,3.68887945411394,28,0,0.662486955000077
S51,3,80,4.38202663467388,29,0,0.65437579699983
S51,5,120,4.78749174278205,30,0,0.897990591000053
S51,10,220,5.39362754635236,31,1,0.976607687000069
S51,3,80,4.38202663467388,32,0,0.64758459299992
S51,4,100,4.60517018598809,33,0,0.765469796999696
S51,6,140,4.9416424226093,34,1,1.27821014900019
S51,5,120,4.78749174278205,35,1,1.2260550850001
S51,3,80,4.38202663467388,36,0,0.64902178400007
S51,8,180,5.19295685089021,37,1,0.730243785999846
S51,4,100,4.60517018598809,38,0,0.639281650000157
S51,7,160,5.07517381523383,39,1,0.901631307999651
S51,7,160,5.07517381523383,40,1,0.745913055000074
S51,5,120,4.78749174278205,41,0,1.54119067800002
S51,4,100,4.60517018598809,42,0,0.72077345300022
S51,10,220,5.39362754635236,43,1,0.923897774000125
S51,2,60,4.0943445622221,44,0,0.666209288000118
S51,7,160,5.07517381523383,45,1,0.787458155999957
S51,4,100,4.60517018598809,46,0,0.684138980000171
S51,8,180,5.19295685089021,47,1,1.15426481499981
S51,5,120,4.78749174278205,48,0,1.1785105619997
S51,5,120,4.78749174278205,49,0,0.824303196000074
S51,7,160,5.07517381523383,50,1,0.68480665099969
S51,6,140,4.9416424226093,51,1,1.23669129599966
S51,4,100,4.60517018598809,52,0,0.706074106999949
S51,2,60,4.0943445622221,53,0,0.659962582999924
S51,5,120,4.78749174278205,54,0,0.899933134999628
S51,6,140,4.9416424226093,55,0,1.220567157
S51,3,80,4.38202663467388,56,0,0.653558524000346
S51,6,140,4.9416424226093,57,0,1.50952623099965
S51,1,40,3.68887945411394,58,0,0.6464768310002
S51,9,200,5.29831736654804,59,1,0.800457515999824
S51,6,140,4.9416424226093,60,1,0.657020725999701
S51,8,180,5.19295685089021,61,1,0.631743698999799
S51,6,140,4.9416424226093,62,1,0.667439199
S51,7,160,5.07517381523383,63,1,0.666425630000049
S51,9,200,5.29831736654804,64,1,1.22740545199986
S51,4,100,4.60517018598809,65,0,0.682744533999994
S52,3,80,4.38202663467388,1,0,0.911840606000624
S52,4,100,4.60517018598809,2,1,1.41121480600032
S52,3,80,4.38202663467388,3,0,1.06245086799936
S52,3,80,4.38202663467388,4,0,0.690435478999461
S52,6,140,4.9416424226093,5,1,0.766694789999747
S52,4,100,4.60517018598809,6,0,1.50080931399953
S52,4,100,4.60517018598809,7,0,1.50742318299945
S52,8,180,5.19295685089021,8,1,0.780128346999845
S52,5,120,4.78749174278205,9,1,0.965318681999634
S52,9,200,5.29831736654804,10,1,0.598446320000221
S52,7,160,5.07517381523383,11,1,0.591414558999531
S52,1,40,3.68887945411394,12,0,0.705830666999645
S52,4,100,4.60517018598809,13,0,1.36701174000063
S52,9,200,5.29831736654804,14,1,0.65910048799924
S52,5,120,4.78749174278205,15,0,1.45760760900066
S52,5,120,4.78749174278205,16,1,1.67026984600034
S52,8,180,5.19295685089021,17,1,0.744999225999891
S52,10,220,5.39362754635236,18,1,0.639791634000176
S52,4,100,4.60517018598809,19,0,0.689551989999927
S52,6,140,4.9416424226093,20,1,1.15159444999972
S52,10,220,5.39362754635236,21,1,0.796423384000263
S52,1,40,3.68887945411394,22,0,0.325544530000116
S52,10,220,5.39362754635236,23,1,0.5946219260004
S52,3,80,4.38202663467388,24,1,0.811410245999468
S52,10,220,5.39362754635236,25,1,0.706770800000413
S52,6,140,4.9416424226093,26,1,1.4052888719998
S52,7,160,5.07517381523383,27,1,0.583898361000138
S52,5,120,4.78749174278205,28,0,0.891627218000394
S52,7,160,5.07517381523383,29,1,0.600135036000211
S52,7,160,5.07517381523383,30,1,0.676290463999976
S52,3,80,4.38202663467388,31,0,0.62739862699982
S52,5,120,4.78749174278205,32,0,0.922560107000209
S52,4,100,4.60517018598809,33,0,1.17112123599964
S52,7,160,5.07517381523383,34,1,0.729544595999869
S52,9,200,5.29831736654804,35,1,1.3182537190005
S52,9,200,5.29831736654804,36,1,0.687141897000402
S52,8,180,5.19295685089021,37,1,0.702964142999917
S52,6,140,4.9416424226093,38,1,1.18046455600052
S52,6,140,4.9416424226093,39,1,0.626049180000336
S52,8,180,5.19295685089021,40,1,0.900336843999867
S52,7,160,5.07517381523383,41,1,0.933778630000234
S52,6,140,4.9416424226093,42,1,1.47516327599988
S52,5,120,4.78749174278205,43,0,1.16723279899998
S52,6,140,4.9416424226093,44,1,1.48547258500002
S52,2,60,4.0943445622221,45,1,0.681514969000091
S52,2,60,4.0943445622221,46,0,0.680642745000114
S52,5,120,4.78749174278205,47,1,1.10216312499961
S52,1,40,3.68887945411394,48,0,0.440149476999977
S52,6,140,4.9416424226093,49,1,0.641392978000113
S52,3,80,4.38202663467388,50,0,0.616361999999754
S52,1,40,3.68887945411394,51,0,0.687603355999272
S52,8,180,5.19295685089021,52,1,0.63639149500068
S52,4,100,4.60517018598809,53,0,1.14479540399952
S52,5,120,4.78749174278205,54,1,0.920739893000246
S52,3,80,4.38202663467388,55,0,0.666718532000232
S52,8,180,5.19295685089021,56,1,0.779517650999878
S52,2,60,4.0943445622221,57,0,0.677110685000116
S52,7,160,5.07517381523383,58,1,0.611585349000052
S52,8,180,5.19295685089021,59,1,0.610826522000025
S52,8,180,5.19295685089021,60,1,0.535552186000132
S52,3,80,4.38202663467388,61,0,0.643891716000326
S52,7,160,5.07517381523383,62,1,0.607529523000267
S52,4,100,4.60517018598809,63,0,1.21436564300075
S52,2,60,4.0943445622221,64,0,0.618398894000165
S52,3,80,4.38202663467388,65,0,0.71938308100016
S53,5,120,4.78749174278205,1,1,1.4699872630008
S53,4,100,4.60517018598809,2,1,0.9910763830012
S53,6,140,4.9416424226093,3,1,1.09193111700006
S53,6,140,4.9416424226093,4,1,0.772842170999866
S53,7,160,5.07517381523383,5,1,2.06765018900114
S53,4,100,4.60517018598809,6,0,1.17587794999963
S53,8,180,5.19295685089021,7,1,0.900112145000094
S53,7,160,5.07517381523383,8,1,2.05465097199885
S53,7,160,5.07517381523383,9,1,2.69694654100022
S53,3,80,4.38202663467388,10,0,0.767666178000582
S53,3,80,4.38202663467388,11,0,0.778383876999214
S53,6,140,4.9416424226093,12,1,1.52764530400054
S53,3,80,4.38202663467388,13,0,0.722499180999876
S53,2,60,4.0943445622221,14,0,0.681669495999813
S53,7,160,5.07517381523383,15,1,0.722418338000352
S53,5,120,4.78749174278205,16,0,1.11014643400085
S53,2,60,4.0943445622221,17,0,0.636403587999666
S53,5,120,4.78749174278205,18,0,0.979013706999467
S53,3,80,4.38202663467388,19,0,0.907094574999064
S53,4,100,4.60517018598809,20,0,0.984256375000768
S53,7,160,5.07517381523383,21,1,0.490552323000884
S53,9,200,5.29831736654804,22,1,0.791595176999181
S53,5,120,4.78749174278205,23,0,1.2530124799996
S53,10,220,5.39362754635236,24,1,0.681415574999846
S53,2,60,4.0943445622221,25,0,0.57900924400019
S53,3,80,4.38202663467388,26,0,0.744461523001519
S53,10,220,5.39362754635236,27,1,0.636560234001081
S53,4,100,4.60517018598809,28,0,1.09560649100058
S53,3,80,4.38202663467388,29,0,0.923874739999519
S53,8,180,5.19295685089021,30,1,0.641835209000419
S53,6,140,4.9416424226093,31,1,1.50624044399956
S53,8,180,5.19295685089021,32,1,0.640342298998803
S53,4,100,4.60517018598809,33,0,0.955559945999994
S53,9,200,5.29831736654804,34,1,0.698719804000575
S53,7,160,5.07517381523383,35,1,0.684083760999783
S53,6,140,4.9416424226093,36,1,0.839065837000817
S53,9,200,5.29831736654804,37,1,2.05633423600011
S53,8,180,5.19295685089021,38,1,0.603638513999613
S53,1,40,3.68887945411394,39,0,0.771463267999934
S53,10,220,5.39362754635236,40,0,0.716957975000696
S53,6,140,4.9416424226093,41,1,0.996117450000384
S53,1,40,3.68887945411394,42,0,0.641086233999886
S53,8,180,5.19295685089021,43,1,0.825652282001101
S53,3,80,4.38202663467388,44,0,0.987002067000503
S53,7,160,5.07517381523383,45,1,1.14278164400093
S53,8,180,5.19295685089021,46,1,0.704775509000683
S53,8,180,5.19295685089021,47,1,0.673276024999723
S53,5,120,4.78749174278205,48,1,0.906383518000439
S53,6,140,4.9416424226093,49,0,1.0348103719989
S53,4,100,4.60517018598809,50,0,0.667090132999874
S53,2,60,4.0943445622221,51,0,0.68199505100165
S53,1,40,3.68887945411394,52,0,0.614579244000197
S53,6,140,4.9416424226093,53,1,1.74400046499977
S53,5,120,4.78749174278205,54,0,0.949343940999825
S53,7,160,5.07517381523383,55,1,0.640586674000588
S53,1,40,3.68887945411394,56,0,0.602165243000854
S53,4,100,4.60517018598809,57,0,0.766487677999976
S53,4,100,4.60517018598809,58,0,1.19699350100018
S53,5,120,4.78749174278205,59,1,0.75957202599966
S53,5,120,4.78749174278205,60,1,0.629850264000197
S53,8,180,5.19295685089021,61,1,0.637640174998523
S53,9,200,5.29831736654804,62,1,0.480131147998691
S53,10,220,5.39362754635236,63,1,0.497960669999884
S53,3,80,4.38202663467388,64,0,0.910097538000628
S53,5,120,4.78749174278205,65,0,1.01907016400037
S54,8,180,5.19295685089021,1,1,1.11974563200056
S54,4,100,4.60517018598809,2,0,0.474350927999694
S54,3,80,4.38202663467388,3,0,0.442374309001025
S54,5,120,4.78749174278205,4,0,1.31373576700025
S54,3,80,4.38202663467388,5,0,1.39266325199969
S54,3,80,4.38202663467388,6,0,1.21671314800005
S54,4,100,4.60517018598809,7,0,1.60707129000002
S54,5,120,4.78749174278205,8,0,0.88343028700001
S54,10,220,5.39362754635236,9,1,0.887919130998853
S54,5,120,4.78749174278205,10,1,2.41474378999919
S54,1,40,3.68887945411394,11,0,0.79176421199918
S54,1,40,3.68887945411394,12,0,0.719022882998615
S54,8,180,5.19295685089021,13,1,0.830406643999595
S54,8,180,5.19295685089021,14,1,0.621862263000367
S54,7,160,5.07517381523383,15,1,0.57669327000076
S54,5,120,4.78749174278205,16,0,1.01791681900067
S54,7,160,5.07517381523383,17,1,1.54216056599944
S54,6,140,4.9416424226093,18,0,0.955551192999337
S54,5,120,4.78749174278205,19,0,1.01448145100039
S54,5,120,4.78749174278205,20,0,1.37665675800054
S54,8,180,5.19295685089021,21,1,1.10213777900026
S54,5,120,4.78749174278205,22,0,0.832254843000555
S54,6,140,4.9416424226093,23,0,2.12743903699993
S54,1,40,3.68887945411394,24,0,0.690489435999552
S54,4,100,4.60517018598809,25,0,0.742995649001386
S54,2,60,4.0943445622221,26,0,1.08646289900025
S54,9,200,5.29831736654804,27,1,1.31010103600056
S54,8,180,5.19295685089021,28,1,2.43781508999928
S54,6,140,4.9416424226093,29,1,2.061197437999
S54,7,160,5.07517381523383,30,1,1.04477462000068
S54,8,180,5.19295685089021,31,1,0.783266096999796
S54,3,80,4.38202663467388,32,0,0.652425259999291
S54,6,140,4.9416424226093,33,1,1.45209266200072
S54,8,180,5.19295685089021,34,1,0.897528555000463
S54,10,220,5.39362754635236,35,0,3.76788903200031
S54,1,40,3.68887945411394,36,0,0.508254582000518
S54,3,80,4.38202663467388,37,0,0.642307266998614
S54,2,60,4.0943445622221,38,0,0.56991266300065
S54,6,140,4.9416424226093,39,1,1.05101399699925
S54,3,80,4.38202663467388,40,0,0.533733649001078
S54,10,220,5.39362754635236,41,1,0.714168683000025
S54,7,160,5.07517381523383,42,1,0.921749989000091
S54,4,100,4.60517018598809,43,0,1.33102376200077
S54,7,160,5.07517381523383,44,1,1.0653289790007
S54,9,200,5.29831736654804,45,1,0.670355565000136
S54,4,100,4.60517018598809,46,0,0.626799721001589
S54,8,180,5.19295685089021,47,1,1.88121889600006
S54,2,60,4.0943445622221,48,0,0.688624700000219
S54,5,120,4.78749174278205,49,1,1.14564438799971
S54,4,100,4.60517018598809,50,0,0.68499938000059
S54,4,100,4.60517018598809,51,0,1.07111206700029
S54,6,140,4.9416424226093,52,1,3.27062651599954
S54,6,140,4.9416424226093,53,1,1.62707391100048
S54,4,100,4.60517018598809,54,0,0.490998019999097
S54,10,220,5.39362754635236,55,1,0.827269723999052
S54,9,200,5.29831736654804,56,1,0.642326203000266
S54,6,140,4.9416424226093,57,1,1.71317668200027
S54,9,200,5.29831736654804,58,1,0.770681983000031
S54,3,80,4.38202663467388,59,0,0.654587962000733
S54,7,160,5.07517381523383,60,1,1.11262636699939
S54,7,160,5.07517381523383,61,1,0.855528357998992
S54,2,60,4.0943445622221,62,0,0.787568477000605
S54,7,160,5.07517381523383,63,1,1.21842814900083
S54,3,80,4.38202663467388,64,0,0.64847295599975
S54,8,180,5.19295685089021,65,1,0.951341186999343
S55,7,160,5.07517381523383,1,1,1.33136420099981
S55,6,140,4.9416424226093,2,0,1.01944601200012
S55,3,80,4.38202663467388,3,0,0.918054693000158
S55,6,140,4.9416424226093,4,0,1.29583486099727
S55,8,180,5.19295685089021,5,1,0.873206268999638
S55,4,100,4.60517018598809,6,0,0.871987650996743
S55,7,160,5.07517381523383,7,1,0.734581556000194
S55,3,80,4.38202663467388,8,0,0.608314969002095
S55,7,160,5.07517381523383,9,1,0.594236889999593
S55,10,220,5.39362754635236,10,0,1.10509701900082
S55,7,160,5.07517381523383,11,0,0.7826857809996
S55,1,40,3.68887945411394,12,0,1.03989056999853
S55,2,60,4.0943445622221,13,0,1.05635412099946
S55,4,100,4.60517018598809,14,0,0.950475153000298
S55,4,100,4.60517018598809,15,0,1.15290781700241
S55,1,40,3.68887945411394,16,0,0.897201268999197
S55,6,140,4.9416424226093,17,0,1.42466590199911
S55,5,120,4.78749174278205,18,0,1.21835662599915
S55,6,140,4.9416424226093,19,1,1.4323283800004
S55,6,140,4.9416424226093,20,1,1.44236728800024
S55,4,100,4.60517018598809,21,0,0.517580674000783
S55,9,200,5.29831736654804,22,1,0.707647852999798
S55,9,200,5.29831736654804,23,1,0.867102584001259
S55,8,180,5.19295685089021,24,1,0.65405282500069
S55,9,200,5.29831736654804,25,1,0.977739664002002
S55,3,80,4.38202663467388,26,0,0.987011059998622
S55,4,100,4.60517018598809,27,0,0.958254863999173
S55,6,140,4.9416424226093,28,0,1.06947311900149
S55,10,220,5.39362754635236,29,1,0.71498482899915
S55,4,100,4.60517018598809,30,0,0.885329830001865
S55,8,180,5.19295685089021,31,1,0.752314100998774
S55,8,180,5.19295685089021,32,1,0.727356997002062
S55,2,60,4.0943445622221,33,0,0.621830295000109
S55,10,220,5.39362754635236,34,1,0.755266159998428
S55,2,60,4.0943445622221,35,0,0.640526005001448
S55,5,120,4.78749174278205,36,0,1.15060536999954
S55,1,40,3.68887945411394,37,0,0.672348448999401
S55,3,80,4.38202663467388,38,0,0.51189410400184
S55,3,80,4.38202663467388,39,0,0.75757538399921
S55,5,120,4.78749174278205,40,0,1.39904341800138
S55,5,120,4.78749174278205,41,0,0.926643143000547
S55,8,180,5.19295685089021,42,1,0.787297101000149
S55,7,160,5.07517381523383,43,1,1.73328493499866
S55,4,100,4.60517018598809,44,0,0.722851634000108
S55,5,120,4.78749174278205,45,0,0.729695793001156
S55,10,220,5.39362754635236,46,1,0.606446780999249
S55,5,120,4.78749174278205,47,0,0.663061412000388
S55,3,80,4.38202663467388,48,0,0.669467124000221
S55,2,60,4.0943445622221,49,0,0.871861934996559
S55,8,180,5.19295685089021,50,1,0.771709661003115
S55,3,80,4.38202663467388,51,0,0.657857009002328
S55,9,200,5.29831736654804,52,1,0.917846477001149
S55,6,140,4.9416424226093,53,0,0.615312457000982
S55,1,40,3.68887945411394,54,0,0.928476981000131
S55,7,160,5.07517381523383,55,1,1.01871891100018
S55,7,160,5.07517381523383,56,1,1.35626879800111
S55,5,120,4.78749174278205,57,0,1.14182031000018
S55,4,100,4.60517018598809,58,0,0.826515319000464
S55,3,80,4.38202663467388,59,0,0.655403646997001
S55,8,180,5.19295685089021,60,1,0.894857235001837
S55,5,120,4.78749174278205,61,0,1.07797539700186
S55,7,160,5.07517381523383,62,1,0.898379283000395
S55,8,180,5.19295685089021,63,1,1.15370302000156
S55,6,140,4.9416424226093,64,0,0.807922645002691
S55,7,160,5.07517381523383,65,0,1.27867886400054
S56,7,160,5.07517381523383,1,1,1.33472347200222
S56,8,180,5.19295685089021,2,1,0.481661017998704
S56,3,80,4.38202663467388,3,0,0.595589704000304
S56,6,140,4.9416424226093,4,0,0.940978210001049
S56,3,80,4.38202663467388,5,0,0.621706892998191
S56,8,180,5.19295685089021,6,1,0.620825607002189
S56,6,140,4.9416424226093,7,0,0.662965945997712
S56,2,60,4.0943445622221,8,0,0.520369334000861
S56,5,120,4.78749174278205,9,1,0.437952329000836
S56,7,160,5.07517381523383,10,1,0.532944960999885
S56,7,160,5.07517381523383,11,1,0.575265382001817
S56,10,220,5.39362754635236,12,1,0.502310376999958
S56,1,40,3.68887945411394,13,0,0.480839677002223
S56,6,140,4.9416424226093,14,0,1.34302201200262
S56,9,200,5.29831736654804,15,1,0.695192971001234
S56,4,100,4.60517018598809,16,0,0.920127221997973
S56,3,80,4.38202663467388,17,0,0.546875964999344
S56,10,220,5.39362754635236,18,1,0.451260767000349
S56,8,180,5.19295685089021,19,1,1.11716995399911
S56,5,120,4.78749174278205,20,0,1.01234260999991
S56,3,80,4.38202663467388,21,0,0.632109186000889
S56,1,40,3.68887945411394,22,0,0.603440359001979
S56,2,60,4.0943445622221,23,0,0.541466951002803
S56,8,180,5.19295685089021,24,1,0.712379985001462
S56,4,100,4.60517018598809,25,0,0.573427744999208
S56,6,140,4.9416424226093,26,1,0.684395814998425
S56,7,160,5.07517381523383,27,1,1.37416834900068
S56,6,140,4.9416424226093,28,1,0.808595918999345
S56,4,100,4.60517018598809,29,0,0.507682661998842
S56,7,160,5.07517381523383,30,1,1.00388894199932
S56,5,120,4.78749174278205,31,1,1.4730098910004
S56,5,120,4.78749174278205,32,1,1.71814895399802
S56,8,180,5.19295685089021,33,1,0.611126736999722
S56,8,180,5.19295685089021,34,1,0.550115923000703
S56,7,160,5.07517381523383,35,1,0.569613974999811
S56,1,40,3.68887945411394,36,0,0.352778101001604
S56,3,80,4.38202663467388,37,0,0.923417939000501
S56,4,100,4.60517018598809,38,0,1.07042824299788
S56,10,220,5.39362754635236,39,1,0.507290937999642
S56,6,140,4.9416424226093,40,1,0.76828288699835
S56,6,140,4.9416424226093,41,1,0.749930719000986
S56,5,120,4.78749174278205,42,1,0.698818500000925
S56,4,100,4.60517018598809,43,0,0.70612240400078
S56,2,60,4.0943445622221,44,0,0.524909362000471
S56,4,100,4.60517018598809,45,0,0.900044519003131
S56,4,100,4.60517018598809,46,0,1.00998320299914
S56,8,180,5.19295685089021,47,1,0.42776557599791
S56,9,200,5.29831736654804,48,1,0.540210045001004
S56,3,80,4.38202663467388,49,0,0.416892737001035
S56,3,80,4.38202663467388,50,0,0.615821624000091
S56,7,160,5.07517381523383,51,1,0.533802992998972
S56,4,100,4.60517018598809,52,0,0.829120647002128
S56,5,120,4.78749174278205,53,1,0.602048302000185
S56,6,140,4.9416424226093,54,1,0.841307956998207
S56,8,180,5.19295685089021,55,1,0.45221318500262
S56,1,40,3.68887945411394,56,0,0.472335823997128
S56,7,160,5.07517381523383,57,1,0.62912674099789
S56,3,80,4.38202663467388,58,0,0.950834008999664
S56,5,120,4.78749174278205,59,1,0.569259026000509
S56,9,200,5.29831736654804,60,1,0.494099867999466
S56,5,120,4.78749174278205,61,0,0.953971320999699
S56,2,60,4.0943445622221,62,0,0.861676939999597
S56,10,220,5.39362754635236,63,1,0.41321959799825
S56,9,200,5.29831736654804,64,1,0.504442214001756
S56,7,160,5.07517381523383,65,0,0.921977652000351
S57,5,120,4.78749174278205,1,1,0.986771265001153
S57,4,100,4.60517018598809,2,0,1.31566328700137
S57,3,80,4.38202663467388,3,0,1.10385816100097
S57,5,120,4.78749174278205,4,1,1.69867565499953
S57,1,40,3.68887945411394,5,0,0.980199878998974
S57,5,120,4.78749174278205,6,1,0.924983081000391
S57,9,200,5.29831736654804,7,1,0.987656879999122
S57,1,40,3.68887945411394,8,0,1.04601067999829
S57,1,40,3.68887945411394,9,0,0.998674390000815
S57,7,160,5.07517381523383,10,1,1.12396348300172
S57,7,160,5.07517381523383,11,1,1.41172747199744
S57,10,220,5.39362754635236,12,1,1.11975286099914
S57,3,80,4.38202663467388,13,0,1.21020491399759
S57,2,60,4.0943445622221,14,0,1.22006877699823
S57,9,200,5.29831736654804,15,1,1.13238042500234
S57,4,100,4.60517018598809,16,0,1.24505506100104
S57,7,160,5.07517381523383,17,1,0.935464271999081
S57,5,120,4.78749174278205,18,1,1.52217056700101
S57,7,160,5.07517381523383,19,1,1.32505162500092
S57,3,80,4.38202663467388,20,0,1.19437089400162
S57,8,180,5.19295685089021,21,1,1.13415444899874
S57,7,160,5.07517381523383,22,1,1.45394517100067
S57,6,140,4.9416424226093,23,1,1.40122748900103
S57,3,80,4.38202663467388,24,0,1.39107717799925
S57,9,200,5.29831736654804,25,1,1.33495812199908
S57,7,160,5.07517381523383,26,1,1.31039779799903
S57,8,180,5.19295685089021,27,1,1.56163506099983
S57,6,140,4.9416424226093,28,1,1.31516770099915
S57,8,180,5.19295685089021,29,1,1.42700591000175
S57,4,100,4.60517018598809,30,0,1.27397835300144
S57,2,60,4.0943445622221,31,0,1.19744250499934
S57,8,180,5.19295685089021,32,1,1.00378838799952
S57,2,60,4.0943445622221,33,0,1.1030515909988
S57,6,140,4.9416424226093,34,1,1.59357768800328
S57,6,140,4.9416424226093,35,1,1.28417492900189
S57,5,120,4.78749174278205,36,0,1.82255143299699
S57,3,80,4.38202663467388,37,0,1.45455852599844
S57,3,80,4.38202663467388,38,0,1.54797965599937
S57,4,100,4.60517018598809,39,0,1.69184598399806
S57,4,100,4.60517018598809,40,0,1.81527444099993
S57,6,140,4.9416424226093,41,1,1.3209520019991
S57,1,40,3.68887945411394,42,0,1.19083051000052
S57,4,100,4.60517018598809,43,0,1.34772000999874
S57,8,180,5.19295685089021,44,1,1.24321418199906
S57,3,80,4.38202663467388,45,0,1.24031203100094
S57,7,160,5.07517381523383,46,1,1.33579895099683
S57,2,60,4.0943445622221,47,0,1.26894723900114
S57,3,80,4.38202663467388,48,0,1.47592809900016
S57,6,140,4.9416424226093,49,1,1.02760089000003
S57,10,220,5.39362754635236,50,1,1.0523648979979
S57,10,220,5.39362754635236,51,1,1.43941570699826
S57,6,140,4.9416424226093,52,1,1.48386342800222
S57,7,160,5.07517381523383,53,1,1.07260525500169
S57,4,100,4.60517018598809,54,0,1.22885492899877
S57,10,220,5.39362754635236,55,1,1.26624302500204
S57,8,180,5.19295685089021,56,1,1.37328954799887
S57,8,180,5.19295685089021,57,1,1.08959358299762
S57,5,120,4.78749174278205,58,1,1.59394401700047
S57,8,180,5.19295685089021,59,1,1.12273822600037
S57,9,200,5.29831736654804,60,1,1.1586845210004
S57,5,120,4.78749174278205,61,1,1.77623102300277
S57,5,120,4.78749174278205,62,0,1.67973758399967
S57,6,140,4.9416424226093,63,1,1.32335336699907
S57,4,100,4.60517018598809,64,0,1.32057015999817
S57,5,120,4.78749174278205,65,1,1.44426668800224
S58,5,120,4.78749174278205,1,0,1.32213585199861
S58,7,160,5.07517381523383,2,0,1.89772576299947
S58,9,200,5.29831736654804,3,1,0.963887246001832
S58,3,80,4.38202663467388,4,0,0.600502917000995
S58,3,80,4.38202663467388,5,0,0.670121986000595
S58,6,140,4.9416424226093,6,1,3.81029280800067
S58,8,180,5.19295685089021,7,1,0.873037691999343
S58,5,120,4.78749174278205,8,0,1.79894250500001
S58,10,220,5.39362754635236,9,1,0.820483827999851
S58,7,160,5.07517381523383,10,1,0.783411958000215
S58,1,40,3.68887945411394,11,0,0.691007288001856
S58,10,220,5.39362754635236,12,1,0.70179846999963
S58,4,100,4.60517018598809,13,0,1.14415329199983
S58,5,120,4.78749174278205,14,0,1.85381259899805
S58,1,40,3.68887945411394,15,0,0.706212295001023
S58,6,140,4.9416424226093,16,1,0.824118794000242
S58,4,100,4.60517018598809,17,0,1.99797988000137
S58,8,180,5.19295685089021,18,1,0.401752491001389
S58,10,220,5.39362754635236,19,1,0.711896184999205
S58,6,140,4.9416424226093,20,0,1.76648705600019
S58,3,80,4.38202663467388,21,0,0.743166552998446
S58,7,160,5.07517381523383,22,0,1.62732667099772
S58,4,100,4.60517018598809,23,0,1.00506768199921
S58,3,80,4.38202663467388,24,0,0.715158929000609
S58,10,220,5.39362754635236,25,1,2.29582577300243
S58,9,200,5.29831736654804,26,1,0.683199564999086
S58,5,120,4.78749174278205,27,0,1.09967172899997
S58,6,140,4.9416424226093,28,0,0.950770365001517
S58,1,40,3.68887945411394,29,0,0.644665100000566
S58,8,180,5.19295685089021,30,0,1.60204174500177
S58,8,180,5.19295685089021,31,1,1.13229191599748
S58,7,160,5.07517381523383,32,1,1.70876872000008
S58,7,160,5.07517381523383,33,0,1.1283839400021
S58,6,140,4.9416424226093,34,0,1.29602976300157
S58,6,140,4.9416424226093,35,0,1.52440915199986
S58,7,160,5.07517381523383,36,1,1.14059710800211
S58,5,120,4.78749174278205,37,0,0.89229995200003
S58,8,180,5.19295685089021,38,1,1.51547130900144
S58,4,100,4.60517018598809,39,0,3.51130704800016
S58,2,60,4.0943445622221,40,0,0.648291730998608
S58,7,160,5.07517381523383,41,1,0.789591545999428
S58,8,180,5.19295685089021,42,1,0.820896118999372
S58,1,40,3.68887945411394,43,0,0.47698239500096
S58,3,80,4.38202663467388,44,0,0.553935993000778
S58,8,180,5.19295685089021,45,1,0.615844767999079
S58,6,140,4.9416424226093,46,1,0.509477862000494
S58,9,200,5.29831736654804,47,1,0.61316244200134
S58,2,60,4.0943445622221,48,0,0.526855565000005
S58,5,120,4.78749174278205,49,1,0.870818390001659
S58,3,80,4.38202663467388,50,0,0.715982213998359
S58,2,60,4.0943445622221,51,0,0.565537010003027
S58,2,60,4.0943445622221,52,0,0.63185203300236
S58,4,100,4.60517018598809,53,0,1.52144340800078
S58,9,200,5.29831736654804,54,1,0.544965277000301
S58,8,180,5.19295685089021,55,1,0.565148025998496
S58,3,80,4.38202663467388,56,0,0.999218019998807
S58,4,100,4.60517018598809,57,0,0.691347584997857
S58,7,160,5.07517381523383,58,1,1.48828602799767
S58,3,80,4.38202663467388,59,0,0.473686788001942
S58,5,120,4.78749174278205,60,0,2.2888077940006
S58,4,100,4.60517018598809,61,0,0.64537415200175
S58,4,100,4.60517018598809,62,0,0.819196996002574
S58,6,140,4.9416424226093,63,1,0.637130997998611
S58,5,120,4.78749174278205,64,1,1.76969322999867
S58,5,120,4.78749174278205,65,0,0.996514033999119
S59,8,180,5.19295685089021,1,1,0.945447109006636
S59,5,120,4.78749174278205,2,1,1.49820777399873
S59,5,120,4.78749174278205,3,0,1.96810558599827
S59,3,80,4.38202663467388,4,0,1.11394709500019
S59,3,80,4.38202663467388,5,0,0.940224670994212
S59,7,160,5.07517381523383,6,1,1.1362005139963
S59,8,180,5.19295685089021,7,1,1.20006868999917
S59,7,160,5.07517381523383,8,1,1.68184692099749
S59,4,100,4.60517018598809,9,0,1.08193126900005
S59,3,80,4.38202663467388,10,0,0.978286015000776
S59,8,180,5.19295685089021,11,1,1.32117354899674
S59,9,200,5.29831736654804,12,1,1.30099865300144
S59,7,160,5.07517381523383,13,1,1.59779501899902
S59,5,120,4.78749174278205,14,0,1.73342660300113
S59,10,220,5.39362754635236,15,1,1.01954038300028
S59,4,100,4.60517018598809,16,0,1.02527488499618
S59,1,40,3.68887945411394,17,0,0.904070020005747
S59,7,160,5.07517381523383,18,1,1.31163143899903
S59,3,80,4.38202663467388,19,0,0.905205642993678
S59,4,100,4.60517018598809,20,0,1.07791441799782
S59,5,120,4.78749174278205,21,1,1.55065838299925
S59,4,100,4.60517018598809,22,0,1.88097767299769
S59,8,180,5.19295685089021,23,1,0.84322913899814
S59,6,140,4.9416424226093,24,1,1.60902850500133
S59,8,180,5.19295685089021,25,1,0.942829487001291
S59,8,180,5.19295685089021,26,1,1.48690121200343
S59,1,40,3.68887945411394,27,0,0.776666852994822
S59,6,140,4.9416424226093,28,1,1.59769786099787
S59,4,100,4.60517018598809,29,0,0.664503856998635
S59,7,160,5.07517381523383,30,1,0.923693215001549
S59,6,140,4.9416424226093,31,1,1.07624045500415
S59,2,60,4.0943445622221,32,0,0.690104036999401
S59,3,80,4.38202663467388,33,0,0.852457483997568
S59,2,60,4.0943445622221,34,0,0.838700754000456
S59,1,40,3.68887945411394,35,0,0.440817198999866
S59,10,220,5.39362754635236,36,1,0.91477887200017
S59,8,180,5.19295685089021,37,1,0.833358454001427
S59,3,80,4.38202663467388,38,0,0.893001276002906
S59,10,220,5.39362754635236,39,1,0.901767217001179
S59,9,200,5.29831736654804,40,1,0.796160266996594
S59,5,120,4.78749174278205,41,1,1.91779272799613
S59,7,160,5.07517381523383,42,1,0.833965376994456
S59,7,160,5.07517381523383,43,1,1.47334654600127
S59,2,60,4.0943445622221,44,0,0.74561937800172
S59,8,180,5.19295685089021,45,1,1.33723468300013
S59,4,100,4.60517018598809,46,0,0.953118395998899
S59,9,200,5.29831736654804,47,1,0.874309382001229
S59,6,140,4.9416424226093,48,1,1.78663298799802
S59,6,140,4.9416424226093,49,1,0.970588064999902
S59,7,160,5.07517381523383,50,1,1.1012343110051
S59,9,200,5.29831736654804,51,1,1.03518194299977
S59,1,40,3.68887945411394,52,0,0.642352495000523
S59,5,120,4.78749174278205,53,0,1.98843221100105
S59,2,60,4.0943445622221,54,0,1.01458749999438
S59,4,100,4.60517018598809,55,0,1.22096518200124
S59,4,100,4.60517018598809,56,0,0.976323488001071
S59,6,140,4.9416424226093,57,1,0.947170391002146
S59,3,80,4.38202663467388,58,0,1.50776800000313
S59,5,120,4.78749174278205,59,1,1.44382103499811
S59,6,140,4.9416424226093,60,1,1.23553699100012
S59,10,220,5.39362754635236,61,1,0.894867864000844
S59,3,80,4.38202663467388,62,0,0.792089807000593
S59,6,140,4.9416424226093,63,1,1.21670621900557
S59,5,120,4.78749174278205,64,1,1.71147036399634
S59,8,180,5.19295685089021,65,1,0.768976419996761
S60,4,100,4.60517018598809,1,0,0.696337679999942
S60,8,180,5.19295685089021,2,1,0.92097628800002
S60,6,140,4.9416424226093,3,1,1.07178446199987
S60,10,220,5.39362754635236,4,1,0.933353118000014
S60,4,100,4.60517018598809,5,0,0.942504752999866
S60,4,100,4.60517018598809,6,0,0.963015937000364
S60,5,120,4.78749174278205,7,0,1.08794480500001
S60,3,80,4.38202663467388,8,0,0.534688616000039
S60,9,200,5.29831736654804,9,1,0.54441891200031
S60,7,160,5.07517381523383,10,1,0.482876121000118
S60,6,140,4.9416424226093,11,0,0.730817747999936
S60,5,120,4.78749174278205,12,0,0.513110121999944
S60,9,200,5.29831736654804,13,1,0.622451941000236
S60,3,80,4.38202663467388,14,0,0.590210625000054
S60,3,80,4.38202663467388,15,0,0.406364731999929
S60,6,140,4.9416424226093,16,0,0.964456639000218
S60,7,160,5.07517381523383,17,1,0.408588450000025
S60,4,100,4.60517018598809,18,0,0.393760209999982
S60,10,220,5.39362754635236,19,1,0.540610595000089
S60,1,40,3.68887945411394,20,0,0.351658328000212
S60,1,40,3.68887945411394,21,0,0.418220961000316
S60,5,120,4.78749174278205,22,0,0.744515321000108
S60,8,180,5.19295685089021,23,1,0.827312942999924
S60,3,80,4.38202663467388,24,0,0.625388076000036
S60,1,40,3.68887945411394,25,0,0.366192773999956
S60,8,180,5.19295685089021,26,1,0.742915266999717
S60,4,100,4.60517018598809,27,0,0.61438230099975
S60,3,80,4.38202663467388,28,0,0.419660542999736
S60,7,160,5.07517381523383,29,1,0.652412860999902
S60,5,120,4.78749174278205,30,0,1.03945470799999
S60,4,100,4.60517018598809,31,0,0.614677923999807
S60,6,140,4.9416424226093,32,1,0.99672889500016
S60,3,80,4.38202663467388,33,0,0.497261727000023
S60,8,180,5.19295685089021,34,1,0.559279323000283
S60,7,160,5.07517381523383,35,1,0.582475589999831
S60,7,160,5.07517381523383,36,1,0.506052108999938
S60,2,60,4.0943445622221,37,0,0.49058630699983
S60,7,160,5.07517381523383,38,1,0.491639295999903
S60,10,220,5.39362754635236,39,1,0.752329028000077
S60,9,200,5.29831736654804,40,1,0.554134110999712
S60,5,120,4.78749174278205,41,1,0.927348641999743
S60,6,140,4.9416424226093,42,1,1.03252186899999
S60,6,140,4.9416424226093,43,0,1.12842718000002
S60,8,180,5.19295685089021,44,1,0.628075579999859
S60,10,220,5.39362754635236,45,1,0.86389572600001
S60,6,140,4.9416424226093,46,0,0.858965708999676
S60,4,100,4.60517018598809,47,0,0.353861651999978
S60,7,160,5.07517381523383,48,1,0.695074960000056
S60,3,80,4.38202663467388,49,0,0.382432771999902
S60,5,120,4.78749174278205,50,0,0.684066669000003
S60,5,120,4.78749174278205,51,0,0.670021952000297
S60,7,160,5.07517381523383,52,1,0.756420964999961
S60,8,180,5.19295685089021,53,1,0.453910257999723
S60,5,120,4.78749174278205,54,0,0.482225018000008
S60,2,60,4.0943445622221,55,1,0.508593067999755
S60,9,200,5.29831736654804,56,1,0.554630835000353
S60,8,180,5.19295685089021,57,1,0.585468121000304
S60,8,180,5.19295685089021,58,1,0.552914821999821
S60,1,40,3.68887945411394,59,0,0.353453347999675
S60,3,80,4.38202663467388,60,0,0.589769996000086
S60,4,100,4.60517018598809,61,0,0.427405456000088
S60,2,60,4.0943445622221,62,0,0.369757936000042
S60,6,140,4.9416424226093,63,0,1.08333101799963
S60,2,60,4.0943445622221,64,0,0.528027181000198
S60,4,100,4.60517018598809,65,0,0.548535576999711
S61,8,180,5.19295685089021,1,1,1.22433348599952
S61,2,60,4.0943445622221,2,0,0.62452219899933
S61,5,120,4.78749174278205,3,1,0.597505026999897
S61,7,160,5.07517381523383,4,1,1.04086355500021
S61,4,100,4.60517018598809,5,0,1.86466284800008
S61,5,120,4.78749174278205,6,1,0.562831569999616
S61,3,80,4.38202663467388,7,0,0.91499293600009
S61,3,80,4.38202663467388,8,0,0.92255961400042
S61,2,60,4.0943445622221,9,0,1.05763315699915
S61,7,160,5.07517381523383,10,1,1.85256432000006
S61,5,120,4.78749174278205,11,1,1.92247623100047
S61,6,140,4.9416424226093,12,1,1.22867421200044
S61,8,180,5.19295685089021,13,1,0.943795643999692
S61,3,80,4.38202663467388,14,0,1.084709492
S61,4,100,4.60517018598809,15,0,1.60624363399984
S61,3,80,4.38202663467388,16,0,0.943267742999524
S61,7,160,5.07517381523383,17,1,0.861226994999925
S61,3,80,4.38202663467388,18,0,0.839820408000378
S61,5,120,4.78749174278205,19,1,1.28725929699976
S61,4,100,4.60517018598809,20,0,1.06085850300042
S61,7,160,5.07517381523383,21,1,0.693099500000244
S61,2,60,4.0943445622221,22,0,0.700094958000591
S61,8,180,5.19295685089021,23,1,0.811479437999878
S61,4,100,4.60517018598809,24,1,1.78691945999981
S61,4,100,4.60517018598809,25,0,1.56474050599991
S61,1,40,3.68887945411394,26,0,0.466414987999997
S61,3,80,4.38202663467388,27,0,0.687000593999983
S61,9,200,5.29831736654804,28,1,1.06252315500024
S61,8,180,5.19295685089021,29,0,0.958478077000109
S61,7,160,5.07517381523383,30,1,1.0041915439997
S61,10,220,5.39362754635236,31,1,0.948838253000758
S61,5,120,4.78749174278205,32,0,1.21899828500045
S61,8,180,5.19295685089021,33,1,1.23341078700014
S61,5,120,4.78749174278205,34,0,1.48810123200019
S61,1,40,3.68887945411394,35,0,0.737076700000216
S61,2,60,4.0943445622221,36,0,1.41620034399966
S61,6,140,4.9416424226093,37,0,1.07386232199951
S61,10,220,5.39362754635236,38,1,0.896742910999819
S61,1,40,3.68887945411394,39,0,0.543916714999796
S61,9,200,5.29831736654804,40,1,0.830378169000141
S61,7,160,5.07517381523383,41,1,0.986702381999748
S61,7,160,5.07517381523383,42,1,0.961940463000246
S61,8,180,5.19295685089021,43,1,0.785412280999481
S61,8,180,5.19295685089021,44,1,1.12870386000031
S61,9,200,5.29831736654804,45,1,1.59975396900063
S61,10,220,5.39362754635236,46,1,1.87532468100017
S61,4,100,4.60517018598809,47,0,1.41581562800002
S61,8,180,5.19295685089021,48,1,1.5481093189992
S61,6,140,4.9416424226093,49,1,1.35428085199965
S61,6,140,4.9416424226093,50,1,0.980616186000589
S61,3,80,4.38202663467388,51,0,0.845132233000186
S61,6,140,4.9416424226093,52,1,1.37666017900028
S61,5,120,4.78749174278205,53,0,1.04927871700056
S61,5,120,4.78749174278205,54,0,1.18939619999946
S61,10,220,5.39362754635236,55,1,0.733746051000708
S61,6,140,4.9416424226093,56,1,2.05789124999956
S61,7,160,5.07517381523383,57,1,1.09890063000057
S61,6,140,4.9416424226093,58,1,2.19375880100051
S61,4,100,4.60517018598809,59,0,0.973269727000115
S61,6,140,4.9416424226093,60,1,1.3794090450001
S61,1,40,3.68887945411394,61,0,0.629561267000099
S61,4,100,4.60517018598809,62,0,1.12483674600026
S61,9,200,5.29831736654804,63,1,0.672090533999835
S61,3,80,4.38202663467388,64,0,1.27586794900071
S61,8,180,5.19295685089021,65,1,0.60765358899971
S62,6,140,4.9416424226093,1,0,1.21405536599991
S62,1,40,3.68887945411394,2,0,0.828103308999971
S62,8,180,5.19295685089021,3,1,1.95480570600012
S62,10,220,5.39362754635236,4,1,1.35838861900015
S62,10,220,5.39362754635236,5,1,1.08568718100014
S62,2,60,4.0943445622221,6,0,0.695819743999891
S62,5,120,4.78749174278205,7,0,1.21666136399995
S62,5,120,4.78749174278205,8,0,2.16948507000006
S62,8,180,5.19295685089021,9,1,0.744487808000031
S62,3,80,4.38202663467388,10,0,0.765008623999847
S62,8,180,5.19295685089021,11,1,0.702984296000068
S62,7,160,5.07517381523383,12,1,0.753817890999926
S62,7,160,5.07517381523383,13,1,0.991832361999968
S62,3,80,4.38202663467388,14,0,0.721887367000136
S62,2,60,4.0943445622221,15,0,0.653451580999899
S62,1,40,3.68887945411394,16,0,1.24313942400022
S62,4,100,4.60517018598809,17,0,1.77496333099998
S62,3,80,4.38202663467388,18,0,0.972056834000341
S62,4,100,4.60517018598809,19,0,1.56733190099976
S62,7,160,5.07517381523383,20,1,0.829889761999766
S62,6,140,4.9416424226093,21,1,0.76326782399974
S62,3,80,4.38202663467388,22,0,0.68216314700021
S62,7,160,5.07517381523383,23,1,0.884370159999889
S62,8,180,5.19295685089021,24,1,1.33469877200014
S62,6,140,4.9416424226093,25,1,0.887803626999812
S62,8,180,5.19295685089021,26,1,1.7265902879999
S62,5,120,4.78749174278205,27,0,1.58300651299987
S62,3,80,4.38202663467388,28,0,0.681838316999801
S62,5,120,4.78749174278205,29,0,1.51309818600021
S62,7,160,5.07517381523383,30,1,1.04601404200002
S62,1,40,3.68887945411394,31,0,0.669012323999596
S62,10,220,5.39362754635236,32,1,1.73799381500021
S62,5,120,4.78749174278205,33,0,1.20300932700002
S62,4,100,4.60517018598809,34,0,0.882448874000147
S62,9,200,5.29831736654804,35,1,0.841941310000038
S62,3,80,4.38202663467388,36,0,0.685417404999953
S62,3,80,4.38202663467388,37,0,0.695735422000325
S62,9,200,5.29831736654804,38,1,0.730469104999884
S62,4,100,4.60517018598809,39,0,1.00544191900008
S62,2,60,4.0943445622221,40,0,0.597659396999916
S62,6,140,4.9416424226093,41,1,1.66632823600003
S62,4,100,4.60517018598809,42,0,0.716939101000207
S62,5,120,4.78749174278205,43,0,1.66027393400009
S62,9,200,5.29831736654804,44,1,0.673652110999683
S62,6,140,4.9416424226093,45,1,1.53665012100009
S62,7,160,5.07517381523383,46,0,1.02566704099991
S62,5,120,4.78749174278205,47,0,0.689344491000156
S62,2,60,4.0943445622221,48,0,0.693376950000129
S62,7,160,5.07517381523383,49,1,0.802958418999879
S62,9,200,5.29831736654804,50,1,0.733966048000184
S62,7,160,5.07517381523383,51,1,0.952200884999911
S62,4,100,4.60517018598809,52,0,0.85417286000029
S62,8,180,5.19295685089021,53,0,1.72295984599987
S62,1,40,3.68887945411394,54,0,0.638065193999864
S62,3,80,4.38202663467388,55,0,0.540607057000216
S62,6,140,4.9416424226093,56,0,1.42755348299988
S62,10,220,5.39362754635236,57,1,2.13272741600031
S62,8,180,5.19295685089021,58,1,0.832771026000046
S62,8,180,5.19295685089021,59,1,0.982276546999856
S62,4,100,4.60517018598809,60,0,0.668174622000151
S62,4,100,4.60517018598809,61,0,0.667171858000074
S62,6,140,4.9416424226093,62,0,0.681050309999591
S62,5,120,4.78749174278205,63,0,0.660607853999863
S62,6,140,4.9416424226093,64,0,0.727723260999937
S62,6,140,4.9416424226093,65,0,0.672125841000252
S63,8,180,5.19295685089021,1,1,0.696812167000644
S63,7,160,5.07517381523383,2,0,1.11857122699985
S63,2,60,4.0943445622221,3,0,0.710804227999688
S63,10,220,5.39362754635236,4,1,0.635286084000654
S63,6,140,4.9416424226093,5,0,0.837465956999949
S63,1,40,3.68887945411394,6,0,0.827730545999657
S63,3,80,4.38202663467388,7,0,0.879167267000412
S63,7,160,5.07517381523383,8,1,0.674167827000019
S63,6,140,4.9416424226093,9,0,1.1912325229996
S63,4,100,4.60517018598809,10,0,0.902579021000747
S63,8,180,5.19295685089021,11,1,0.755046838999988
S63,4,100,4.60517018598809,12,0,0.778716040999825
S63,3,80,4.38202663467388,13,0,0.934870396000406
S63,8,180,5.19295685089021,14,1,0.749861553000301
S63,8,180,5.19295685089021,15,1,0.842146272000718
S63,3,80,4.38202663467388,16,0,0.756628160999753
S63,4,100,4.60517018598809,17,0,1.08814609300043
S63,6,140,4.9416424226093,18,0,0.970576647000598
S63,5,120,4.78749174278205,19,0,0.927495188000648
S63,7,160,5.07517381523383,20,1,0.827786328999537
S63,3,80,4.38202663467388,21,0,0.899406028000158
S63,5,120,4.78749174278205,22,1,0.900737244999618
S63,6,140,4.9416424226093,23,1,0.907923574000051
S63,6,140,4.9416424226093,24,1,1.35063033099959
S63,7,160,5.07517381523383,25,0,1.02661362300023
S63,7,160,5.07517381523383,26,0,1.45184075100042
S63,5,120,4.78749174278205,27,1,0.989649930999803
S63,5,120,4.78749174278205,28,0,0.903783613000087
S63,4,100,4.60517018598809,29,0,0.837283623000076
S63,10,220,5.39362754635236,30,1,0.858456943000419
S63,5,120,4.78749174278205,31,0,1.22432282499994
S63,9,200,5.29831736654804,32,1,0.733537491999414
S63,4,100,4.60517018598809,33,0,0.969715879999967
S63,5,120,4.78749174278205,34,0,0.886942111999815
S63,1,40,3.68887945411394,35,0,0.886253044999648
S63,8,180,5.19295685089021,36,1,0.765647090999664
S63,2,60,4.0943445622221,37,0,0.787630816000274
S63,6,140,4.9416424226093,38,1,1.15108378700006
S63,10,220,5.39362754635236,39,1,0.736158681000234
S63,2,60,4.0943445622221,40,0,0.869261675000416
S63,1,40,3.68887945411394,41,0,0.991734775000623
S63,4,100,4.60517018598809,42,0,1.36858269000004
S63,1,40,3.68887945411394,43,0,0.713329378000708
S63,5,120,4.78749174278205,44,1,0.729412671999853
S63,3,80,4.38202663467388,45,0,1.10668999900008
S63,6,140,4.9416424226093,46,1,0.843825559999459
S63,3,80,4.38202663467388,47,0,1.03904809400046
S63,3,80,4.38202663467388,48,0,0.977951407000546
S63,2,60,4.0943445622221,49,0,1.13365654499921
S63,7,160,5.07517381523383,50,1,0.890325347000726
S63,4,100,4.60517018598809,51,1,1.14699198800008
S63,4,100,4.60517018598809,52,0,1.19293254199965
S63,7,160,5.07517381523383,53,1,0.678925508000248
S63,8,180,5.19295685089021,54,1,0.818025896000108
S63,6,140,4.9416424226093,55,0,1.15470857200035
S63,8,180,5.19295685089021,56,0,1.27741815399986
S63,5,120,4.78749174278205,57,0,0.967308814999342
S63,8,180,5.19295685089021,58,1,1.30440570399969
S63,9,200,5.29831736654804,59,1,1.25969312800044
S63,7,160,5.07517381523383,60,0,0.926965929999824
S63,10,220,5.39362754635236,61,0,1.35051555900009
S63,9,200,5.29831736654804,62,0,1.14392565900016
S63,3,80,4.38202663467388,63,0,0.821636059000411
S63,9,200,5.29831736654804,64,1,0.696914768999704
S63,8,180,5.19295685089021,65,1,1.128353436
S65,5,120,4.78749174278205,1,1,1.61534918199959
S65,8,180,5.19295685089021,2,1,0.99031169600039
S65,4,100,4.60517018598809,3,0,0.596379717999753
S65,5,120,4.78749174278205,4,1,0.684793008999804
S65,6,140,4.9416424226093,5,1,0.86761887900002
S65,3,80,4.38202663467388,6,0,0.444583416000114
S65,6,140,4.9416424226093,7,0,1.28190726599996
S65,7,160,5.07517381523383,8,1,1.55192806600007
S65,4,100,4.60517018598809,9,0,1.39498663299992
S65,7,160,5.07517381523383,10,1,1.41432213899998
S65,5,120,4.78749174278205,11,1,1.94844117799994
S65,5,120,4.78749174278205,12,1,1.18524563200026
S65,10,220,5.39362754635236,13,1,0.747870826000053
S65,7,160,5.07517381523383,14,1,1.38764920499989
S65,10,220,5.39362754635236,15,1,0.889639256999999
S65,9,200,5.29831736654804,16,1,0.947579175999635
S65,3,80,4.38202663467388,17,0,0.606207246999929
S65,7,160,5.07517381523383,18,1,1.47203729000012
S65,8,180,5.19295685089021,19,1,0.860696172000189
S65,1,40,3.68887945411394,20,0,0.537465922999672
S65,3,80,4.38202663467388,21,0,0.591793307999978
S65,2,60,4.0943445622221,22,0,0.497891954999886
S65,8,180,5.19295685089021,23,1,0.532827963000273
S65,8,180,5.19295685089021,24,1,0.573686113999884
S65,6,140,4.9416424226093,25,1,1.00371796499985
S65,6,140,4.9416424226093,26,1,0.88011786800007
S65,8,180,5.19295685089021,27,1,1.38717194599985
S65,5,120,4.78749174278205,28,1,0.760393243999715
S65,4,100,4.60517018598809,29,0,1.32188940699962
S65,9,200,5.29831736654804,30,1,0.995119995000096
S65,8,180,5.19295685089021,31,1,0.714310482000201
S65,7,160,5.07517381523383,32,1,2.22208994399989
S65,7,160,5.07517381523383,33,0,1.09355975900007
S65,3,80,4.38202663467388,34,0,0.700875430999986
S65,3,80,4.38202663467388,35,0,0.518024405000233
S65,8,180,5.19295685089021,36,1,0.580363553000097
S65,10,220,5.39362754635236,37,1,1.02136393899991
S65,4,100,4.60517018598809,38,0,1.26105537499961
S65,2,60,4.0943445622221,39,0,0.659403699999984
S65,1,40,3.68887945411394,40,0,0.533312906999981
S65,6,140,4.9416424226093,41,1,1.22962533899999
S65,5,120,4.78749174278205,42,1,0.619789246999972
S65,3,80,4.38202663467388,43,0,0.537715727999966
S65,10,220,5.39362754635236,44,1,0.827372153999931
S65,2,60,4.0943445622221,45,0,0.656360140999823
S65,7,160,5.07517381523383,46,1,0.873275907000334
S65,1,40,3.68887945411394,47,0,0.395279209999899
S65,9,200,5.29831736654804,48,1,0.657901293000123
S65,5,120,4.78749174278205,49,1,0.904696913999942
S65,7,160,5.07517381523383,50,1,1.02383956499989
S65,6,140,4.9416424226093,51,1,0.708332700000028
S65,9,200,5.29831736654804,52,1,0.84775394899998
S65,6,140,4.9416424226093,53,1,1.37308829199992
S65,4,100,4.60517018598809,54,0,1.13192854099998
S65,4,100,4.60517018598809,55,0,2.66811287000019
S65,8,180,5.19295685089021,56,1,0.864538635999907
S65,3,80,4.38202663467388,57,0,0.560711212000115
S65,4,100,4.60517018598809,58,1,1.12681294599997
S65,6,140,4.9416424226093,59,1,0.741414890999749
S65,1,40,3.68887945411394,60,0,0.497528191000129
S65,5,120,4.78749174278205,61,1,0.601485368999874
S65,2,60,4.0943445622221,62,0,0.4348894689997
S65,4,100,4.60517018598809,63,0,1.62111557300022
S65,3,80,4.38202663467388,64,0,0.709391501000027
S65,5,120,4.78749174278205,65,1,0.685817250000127
S66,3,80,4.38202663467388,1,0,0.6938142099998
S66,2,60,4.0943445622221,2,0,0.701169620000655
S66,1,40,3.68887945411394,3,0,1.08551171300041
S66,4,100,4.60517018598809,4,0,2.05759638600011
S66,9,200,5.29831736654804,5,1,2.03832199600038
S66,6,140,4.9416424226093,6,0,2.58235750299991
S66,8,180,5.19295685089021,7,1,1.06001362400002
S66,6,140,4.9416424226093,8,0,2.31953206600065
S66,5,120,4.78749174278205,9,1,0.933231545000126
S66,8,180,5.19295685089021,10,1,0.925397497000631
S66,10,220,5.39362754635236,11,1,1.14410825899995
S66,4,100,4.60517018598809,12,1,2.93152764899969
S66,8,180,5.19295685089021,13,1,1.29848706800021
S66,3,80,4.38202663467388,14,0,1.39416097000048
S66,5,120,4.78749174278205,15,1,2.61752185499972
S66,6,140,4.9416424226093,16,1,0.990666481000517
S66,7,160,5.07517381523383,17,1,2.21110721700006
S66,4,100,4.60517018598809,18,0,4.0752824630008
S66,4,100,4.60517018598809,19,0,2.94417358299961
S66,5,120,4.78749174278205,20,1,1.53465174099983
S66,5,120,4.78749174278205,21,1,2.41083819100004
S66,3,80,4.38202663467388,22,0,0.96848491000037
S66,4,100,4.60517018598809,23,0,1.13843232900035
S66,6,140,4.9416424226093,24,1,2.5589500720007
S66,4,100,4.60517018598809,25,0,2.50464695699975
S66,1,40,3.68887945411394,26,0,0.787078747000123
S66,6,140,4.9416424226093,27,1,2.49136378700041
S66,10,220,5.39362754635236,28,1,1.84620844700021
S66,2,60,4.0943445622221,29,0,1.63937594099934
S66,9,200,5.29831736654804,30,0,10.8976457520002
S66,7,160,5.07517381523383,31,1,0.970461543999591
S66,8,180,5.19295685089021,32,1,0.766766073999861
S66,1,40,3.68887945411394,33,0,0.640904574999695
S66,8,180,5.19295685089021,34,1,0.584492732000399
S66,5,120,4.78749174278205,35,1,2.94858239400037
S66,10,220,5.39362754635236,36,1,0.809037817999524
S66,5,120,4.78749174278205,37,0,2.20224341300036
S66,7,160,5.07517381523383,38,1,1.14161336899997
S66,2,60,4.0943445622221,39,0,1.39465080800073
S66,3,80,4.38202663467388,40,0,2.13946963299986
S66,6,140,4.9416424226093,41,1,1.46946224899966
S66,6,140,4.9416424226093,42,1,1.54495987799964
S66,3,80,4.38202663467388,43,0,1.49261133100026
S66,10,220,5.39362754635236,44,1,0.843926358000317
S66,3,80,4.38202663467388,45,0,0.813204615000359
S66,7,160,5.07517381523383,46,1,2.33498618799968
S66,5,120,4.78749174278205,47,1,0.87667713799965
S66,4,100,4.60517018598809,48,0,1.1506052550003
S66,7,160,5.07517381523383,49,1,3.60855616199933
S66,6,140,4.9416424226093,50,1,2.23353987100018
S66,2,60,4.0943445622221,51,0,0.760508191000554
S66,5,120,4.78749174278205,52,1,0.964302954000232
S66,1,40,3.68887945411394,53,0,0.681104225000126
S66,7,160,5.07517381523383,54,1,1.07124345600005
S66,9,200,5.29831736654804,55,1,0.788255256999946
S66,9,200,5.29831736654804,56,1,0.646528699000555
S66,8,180,5.19295685089021,57,1,1.28538725100043
S66,8,180,5.19295685089021,58,1,1.43548776900025
S66,4,100,4.60517018598809,59,0,2.08314315999996
S66,3,80,4.38202663467388,60,0,0.820734786000685
S66,3,80,4.38202663467388,61,0,1.402506335
S66,8,180,5.19295685089021,62,0,3.30197394599963
S66,7,160,5.07517381523383,63,1,2.42168368700004
S66,7,160,5.07517381523383,64,1,1.86876662800023
S66,3,80,4.38202663467388,65,0,0.931731829001365
S67,5,120,4.78749174278205,1,0,1.2831782860012
S67,5,120,4.78749174278205,2,0,0.958284422000361
S67,7,160,5.07517381523383,3,1,0.999546753999311
S67,6,140,4.9416424226093,4,1,0.607703196001239
S67,9,200,5.29831736654804,5,1,0.624958045000312
S67,4,100,4.60517018598809,6,0,0.833428834001097
S67,6,140,4.9416424226093,7,1,0.628918955000699
S67,1,40,3.68887945411394,8,0,0.736765597999693
S67,7,160,5.07517381523383,9,0,1.47493741000108
S67,8,180,5.19295685089021,10,1,1.44406409200019
S67,8,180,5.19295685089021,11,1,0.736149761998604
S67,4,100,4.60517018598809,12,1,0.745352957999785
S67,4,100,4.60517018598809,13,0,0.848267547999058
S67,8,180,5.19295685089021,14,1,0.771515337000892
S67,7,160,5.07517381523383,15,1,0.972759876000055
S67,4,100,4.60517018598809,16,0,0.985074506001183
S67,2,60,4.0943445622221,17,0,0.653810521000196
S67,8,180,5.19295685089021,18,1,1.0009878009987
S67,5,120,4.78749174278205,19,0,1.02415281899994
S67,6,140,4.9416424226093,20,1,1.73300205099986
S67,8,180,5.19295685089021,21,1,0.763923315998909
S67,9,200,5.29831736654804,22,1,0.709517817000233
S67,5,120,4.78749174278205,23,1,1.18663038700106
S67,3,80,4.38202663467388,24,0,0.573177192000003
S67,2,60,4.0943445622221,25,0,0.519862344999638
S67,4,100,4.60517018598809,26,0,0.945782910001071
S67,5,120,4.78749174278205,27,1,1.3337575050009
S67,2,60,4.0943445622221,28,0,0.784245181999722
S67,6,140,4.9416424226093,29,1,0.726154582000163
S67,6,140,4.9416424226093,30,1,0.625590379000641
S67,4,100,4.60517018598809,31,1,0.556435774999045
S67,3,80,4.38202663467388,32,0,0.589553330999479
S67,6,140,4.9416424226093,33,1,0.747513481999704
S67,5,120,4.78749174278205,34,1,1.11785870199856
S67,8,180,5.19295685089021,35,1,0.816269260998524
S67,6,140,4.9416424226093,36,1,0.690336268000465
S67,3,80,4.38202663467388,37,0,0.606358775001354
S67,7,160,5.07517381523383,38,1,0.663500079999721
S67,7,160,5.07517381523383,39,1,0.472438725000757
S67,10,220,5.39362754635236,40,1,0.641461172999698
S67,6,140,4.9416424226093,41,1,0.653611188001378
S67,7,160,5.07517381523383,42,1,0.696142048000183
S67,1,40,3.68887945411394,43,0,0.616428155999529
S67,5,120,4.78749174278205,44,1,1.03332319100082
S67,4,100,4.60517018598809,45,1,1.01362504799908
S67,7,160,5.07517381523383,46,1,0.731752026000322
S67,5,120,4.78749174278205,47,0,1.1551358809993
S67,9,200,5.29831736654804,48,1,0.794578342000023
S67,7,160,5.07517381523383,49,1,0.706493669998963
S67,3,80,4.38202663467388,50,0,0.643850110998756
S67,3,80,4.38202663467388,51,0,0.636902427999303
S67,10,220,5.39362754635236,52,1,0.713982486000532
S67,2,60,4.0943445622221,53,0,0.590047124000193
S67,1,40,3.68887945411394,54,0,0.598586715999772
S67,10,220,5.39362754635236,55,1,0.652047953999499
S67,10,220,5.39362754635236,56,1,0.706344047001039
S67,3,80,4.38202663467388,57,0,1.08006646600006
S67,8,180,5.19295685089021,58,1,0.586080869999932
S67,1,40,3.68887945411394,59,0,0.573818053999275
S67,3,80,4.38202663467388,60,0,0.864241784000114
S67,4,100,4.60517018598809,61,1,0.735165210999185
S67,9,200,5.29831736654804,62,1,0.680492796000181
S67,8,180,5.19295685089021,63,1,0.693445382999926
S67,3,80,4.38202663467388,64,0,0.69667571699938
S67,5,120,4.78749174278205,65,1,0.889502067999274
S68,8,180,5.19295685089021,1,1,0.985841829999117
S68,10,220,5.39362754635236,2,1,0.695655225999872
S68,1,40,3.68887945411394,3,0,0.60123865100104
S68,8,180,5.19295685089021,4,1,0.579693411000335
S68,3,80,4.38202663467388,5,0,0.652114706999782
S68,9,200,5.29831736654804,6,1,0.526759454000057
S68,10,220,5.39362754635236,7,1,0.685902092998731
S68,4,100,4.60517018598809,8,0,1.32746332599891
S68,2,60,4.0943445622221,9,0,0.526977671999703
S68,5,120,4.78749174278205,10,0,0.987998335000157
S68,10,220,5.39362754635236,11,1,0.729738275000273
S68,6,140,4.9416424226093,12,0,0.631083480999223
S68,7,160,5.07517381523383,13,1,1.21597965299952
S68,3,80,4.38202663467388,14,0,0.441737054999976
S68,1,40,3.68887945411394,15,0,0.659935259000122
S68,2,60,4.0943445622221,16,0,0.550991800999327
S68,6,140,4.9416424226093,17,1,0.722521650999624
S68,1,40,3.68887945411394,18,0,1.02103482600069
S68,4,100,4.60517018598809,19,0,1.31402892299957
S68,4,100,4.60517018598809,20,0,1.08345076499972
S68,10,220,5.39362754635236,21,1,0.758583959999669
S68,5,120,4.78749174278205,22,1,1.05060545500055
S68,2,60,4.0943445622221,23,0,0.533933785000045
S68,9,200,5.29831736654804,24,1,1.09633400800158
S68,7,160,5.07517381523383,25,1,0.840105933000814
S68,5,120,4.78749174278205,26,0,0.657662777000951
S68,7,160,5.07517381523383,27,0,1.62654151199968
S68,2,60,4.0943445622221,28,0,0.589499218000128
S68,3,80,4.38202663467388,29,0,0.579239672000767
S68,3,80,4.38202663467388,30,0,0.787130536000404
S68,7,160,5.07517381523383,31,1,0.823320089000845
S68,6,140,4.9416424226093,32,1,0.589962459000162
S68,3,80,4.38202663467388,33,0,0.684658344000127
S68,4,100,4.60517018598809,34,1,0.715066069000386
S68,3,80,4.38202663467388,35,0,0.673820562999026
S68,8,180,5.19295685089021,36,0,1.36983613899974
S68,6,140,4.9416424226093,37,0,1.4765652060014
S68,6,140,4.9416424226093,38,0,0.756334482000966
S68,8,180,5.19295685089021,39,1,1.1604380230001
S68,4,100,4.60517018598809,40,0,0.658735475999492
S68,6,140,4.9416424226093,41,0,1.20598728799996
S68,4,100,4.60517018598809,42,0,0.661185263001244
S68,5,120,4.78749174278205,43,0,0.890469579000637
S68,6,140,4.9416424226093,44,0,0.774348467000891
S68,5,120,4.78749174278205,45,0,0.64926514400031
S68,8,180,5.19295685089021,46,0,1.49972830799925
S68,5,120,4.78749174278205,47,0,0.899690804000784
S68,5,120,4.78749174278205,48,0,0.629752080998514
S68,3,80,4.38202663467388,49,0,0.596678974001406
S68,5,120,4.78749174278205,50,0,1.18215913900167
S68,4,100,4.60517018598809,51,0,0.696495141999549
S68,7,160,5.07517381523383,52,1,2.20079740199981
S68,7,160,5.07517381523383,53,1,0.796898872000384
S68,9,200,5.29831736654804,54,1,0.636367085000529
S68,3,80,4.38202663467388,55,0,0.808648274998632
S68,6,140,4.9416424226093,56,1,0.780994389000625
S68,9,200,5.29831736654804,57,1,0.901429946001372
S68,8,180,5.19295685089021,58,1,0.942327549000765
S68,8,180,5.19295685089021,59,1,1.08978448400012
S68,7,160,5.07517381523383,60,1,0.544382603000486
S68,4,100,4.60517018598809,61,1,2.00494338499993
S68,8,180,5.19295685089021,62,1,0.564536796000539
S68,1,40,3.68887945411394,63,0,0.727674487001423
S68,7,160,5.07517381523383,64,1,0.798410077999506
S68,8,180,5.19295685089021,65,1,1.03310902200064
S69,5,120,4.78749174278205,1,0,1.2186390939969
S69,4,100,4.60517018598809,2,0,1.13678013100434
S69,10,220,5.39362754635236,3,1,0.817572922998806
S69,4,100,4.60517018598809,4,0,1.02579619799508
S69,7,160,5.07517381523383,5,1,0.850200859000324
S69,5,120,4.78749174278205,6,0,1.3733513929983
S69,8,180,5.19295685089021,7,1,0.989470688000438
S69,4,100,4.60517018598809,8,0,1.35483468700113
S69,8,180,5.19295685089021,9,1,0.991154868999729
S69,7,160,5.07517381523383,10,1,1.28316499200446
S69,7,160,5.07517381523383,11,1,1.0275489859996
S69,9,200,5.29831736654804,12,1,1.30991228199855
S69,7,160,5.07517381523383,13,0,1.51374435699836
S69,6,140,4.9416424226093,14,0,1.04489543200179
S69,8,180,5.19295685089021,15,1,1.24356495899701
S69,5,120,4.78749174278205,16,0,0.77578431800066
S69,3,80,4.38202663467388,17,0,0.937506002999726
S69,4,100,4.60517018598809,18,0,1.01280055999814
S69,2,60,4.0943445622221,19,0,0.752914334996603
S69,7,160,5.07517381523383,20,1,0.926554484001826
S69,8,180,5.19295685089021,21,1,1.22539166500064
S69,8,180,5.19295685089021,22,1,0.814915973001916
S69,9,200,5.29831736654804,23,1,0.707680685001833
S69,5,120,4.78749174278205,24,0,0.966746162004711
S69,5,120,4.78749174278205,25,0,1.1139840859978
S69,7,160,5.07517381523383,26,1,0.887963733999641
S69,4,100,4.60517018598809,27,0,1.09791985699849
S69,5,120,4.78749174278205,28,1,1.86174230300094
S69,6,140,4.9416424226093,29,1,1.13268914600485
S69,6,140,4.9416424226093,30,1,1.39514260000578
S69,4,100,4.60517018598809,31,0,0.844515748001868
S69,4,100,4.60517018598809,32,0,0.841403203005029
S69,6,140,4.9416424226093,33,1,2.00021641799685
S69,7,160,5.07517381523383,34,1,0.960280487001
S69,1,40,3.68887945411394,35,0,1.02183398400666
S69,4,100,4.60517018598809,36,0,1.10775870100042
S69,3,80,4.38202663467388,37,0,0.787481110004592
S69,8,180,5.19295685089021,38,1,0.808959399000742
S69,3,80,4.38202663467388,39,0,0.988584598999296
S69,3,80,4.38202663467388,40,0,1.4398970090042
S69,2,60,4.0943445622221,41,0,0.804053189000115
S69,2,60,4.0943445622221,42,0,1.13436797600298
S69,10,220,5.39362754635236,43,1,0.954742289002752
S69,3,80,4.38202663467388,44,0,0.936030251003103
S69,10,220,5.39362754635236,45,1,0.958719315000053
S69,8,180,5.19295685089021,46,1,1.33197820599889
S69,6,140,4.9416424226093,47,1,1.10631625099631
S69,3,80,4.38202663467388,48,0,1.02613798200036
S69,6,140,4.9416424226093,49,1,1.14400592699531
S69,9,200,5.29831736654804,50,1,1.00856900899817
S69,1,40,3.68887945411394,51,0,1.00914288499916
S69,5,120,4.78749174278205,52,1,0.991180213997723
S69,9,200,5.29831736654804,53,1,0.680545336996147
S69,10,220,5.39362754635236,54,1,0.805024797002261
S69,6,140,4.9416424226093,55,1,0.987579330998415
S69,1,40,3.68887945411394,56,0,0.943032252005651
S69,8,180,5.19295685089021,57,1,0.961770547000924
S69,1,40,3.68887945411394,58,0,0.879217672998493
S69,3,80,4.38202663467388,59,0,1.11079274999793
S69,7,160,5.07517381523383,60,1,0.848423613002524
S69,3,80,4.38202663467388,61,0,1.91013623299659
S69,5,120,4.78749174278205,62,1,0.901993725005013
S69,2,60,4.0943445622221,63,0,0.992109298000287
S69,6,140,4.9416424226093,64,1,0.807642510000733
S69,5,120,4.78749174278205,65,1,1.14038853600505
S70,4,100,4.60517018598809,1,0,0.485943061001308
S70,5,120,4.78749174278205,2,1,0.47711343899573
S70,10,220,5.39362754635236,3,1,0.744243115004792
S70,9,200,5.29831736654804,4,0,0.392689261003397
S70,6,140,4.9416424226093,5,0,0.828116478005541
S70,6,140,4.9416424226093,6,1,0.408524787002534
S70,1,40,3.68887945411394,7,0,0.382295825998881
S70,7,160,5.07517381523383,8,1,0.578832061000867
S70,7,160,5.07517381523383,9,1,0.553338134996011
S70,8,180,5.19295685089021,10,0,0.656832687003771
S70,3,80,4.38202663467388,11,1,0.380574498005444
S70,4,100,4.60517018598809,12,0,0.616416834003758
S70,6,140,4.9416424226093,13,0,0.539499280996097
S70,9,200,5.29831736654804,14,1,0.847508319995541
S70,8,180,5.19295685089021,15,0,0.932405211999139
S70,7,160,5.07517381523383,16,0,0.415065490997222
S70,2,60,4.0943445622221,17,0,0.600674567001988
S70,8,180,5.19295685089021,18,1,0.661232994003512
S70,5,120,4.78749174278205,19,0,0.481680299999425
S70,4,100,4.60517018598809,20,0,0.563875938001729
S70,4,100,4.60517018598809,21,0,0.518554297996161
S70,7,160,5.07517381523383,22,0,0.671530217005056
S70,5,120,4.78749174278205,23,0,0.465778922996833
S70,7,160,5.07517381523383,24,0,0.575359259994002
S70,6,140,4.9416424226093,25,0,0.629646599001717
S70,3,80,4.38202663467388,26,0,0.512964515997737
S70,10,220,5.39362754635236,27,1,0.528928512001585
S70,5,120,4.78749174278205,28,0,0.573882719996618
S70,1,40,3.68887945411394,29,0,0.546092303004116
S70,3,80,4.38202663467388,30,0,0.599321991998295
S70,3,80,4.38202663467388,31,0,0.408376427003532
S70,6,140,4.9416424226093,32,1,0.619541790998483
S70,7,160,5.07517381523383,33,0,0.594641732001037
S70,9,200,5.29831736654804,34,1,0.541350434003107
S70,7,160,5.07517381523383,35,0,0.707298788001935
S70,3,80,4.38202663467388,36,0,0.511685429002682
S70,7,160,5.07517381523383,37,1,0.538887568000064
S70,4,100,4.60517018598809,38,0,0.449940850994608
S70,8,180,5.19295685089021,39,1,0.618583762996423
S70,9,200,5.29831736654804,40,1,0.659595447003085
S70,3,80,4.38202663467388,41,0,0.426804759998049
S70,1,40,3.68887945411394,42,0,0.556312904998777
S70,6,140,4.9416424226093,43,1,0.648741864999465
S70,8,180,5.19295685089021,44,1,0.463967416006199
S70,4,100,4.60517018598809,45,0,0.435078937000071
S70,10,220,5.39362754635236,46,1,0.46429004699894
S70,2,60,4.0943445622221,47,0,0.637568400998134
S70,4,100,4.60517018598809,48,0,0.8108466259946
S70,1,40,3.68887945411394,49,0,0.443671119995997
S70,2,60,4.0943445622221,50,0,0.514669579999463
S70,10,220,5.39362754635236,51,1,0.558192236996547
S70,4,100,4.60517018598809,52,0,0.929491685004905
S70,3,80,4.38202663467388,53,0,0.410114717000397
S70,5,120,4.78749174278205,54,0,0.521439641001052
S70,3,80,4.38202663467388,55,0,0.356844659996568
S70,8,180,5.19295685089021,56,1,0.605862394004362
S70,8,180,5.19295685089021,57,1,0.539213464995555
S70,2,60,4.0943445622221,58,0,0.526931403001072
S70,5,120,4.78749174278205,59,0,0.604364272003295
S70,5,120,4.78749174278205,60,0,0.545022971993603
S70,6,140,4.9416424226093,61,1,0.49475730699487
S70,5,120,4.78749174278205,62,0,0.470028691001062
S70,8,180,5.19295685089021,63,0,0.68843319699954
S70,6,140,4.9416424226093,64,1,0.501095651001378
S70,4,100,4.60517018598809,65,0,0.548605921998387
S71,4,100,4.60517018598809,1,0,1.19351888499932
S71,10,220,5.39362754635236,2,1,0.609619660000135
S71,5,120,4.78749174278205,3,1,0.623283615000219
S71,3,80,4.38202663467388,4,0,0.566403556000296
S71,6,140,4.9416424226093,5,1,0.489984019000076
S71,7,160,5.07517381523383,6,1,0.524761392999608
S71,7,160,5.07517381523383,7,1,0.536792332999539
S71,6,140,4.9416424226093,8,1,0.545964198000547
S71,5,120,4.78749174278205,9,1,0.935086411000157
S71,6,140,4.9416424226093,10,1,0.466418656000315
S71,3,80,4.38202663467388,11,0,0.587523187999977
S71,5,120,4.78749174278205,12,1,0.615422787000171
S71,5,120,4.78749174278205,13,1,0.705145443999754
S71,7,160,5.07517381523383,14,1,0.695367359999182
S71,1,40,3.68887945411394,15,0,0.676667552999788
S71,10,220,5.39362754635236,16,1,0.656314982999902
S71,9,200,5.29831736654804,17,1,0.58194112000001
S71,6,140,4.9416424226093,18,1,1.01664610700027
S71,8,180,5.19295685089021,19,1,0.48914701800004
S71,4,100,4.60517018598809,20,0,1.20967318800012
S71,6,140,4.9416424226093,21,1,0.641503198999999
S71,6,140,4.9416424226093,22,1,0.80718391299979
S71,9,200,5.29831736654804,23,1,0.599366518000352
S71,4,100,4.60517018598809,24,0,0.664514365000286
S71,3,80,4.38202663467388,25,0,0.594378669999969
S71,3,80,4.38202663467388,26,0,0.576986078000118
S71,10,220,5.39362754635236,27,1,0.483443090000037
S71,3,80,4.38202663467388,28,0,0.626669962000051
S71,2,60,4.0943445622221,29,0,0.56170943699999
S71,5,120,4.78749174278205,30,1,0.763733914999648
S71,10,220,5.39362754635236,31,1,0.645377492999614
S71,8,180,5.19295685089021,32,1,0.510609800000566
S71,8,180,5.19295685089021,33,1,0.517814885999542
S71,7,160,5.07517381523383,34,1,1.26953337199939
S71,3,80,4.38202663467388,35,0,0.666572189999897
S71,8,180,5.19295685089021,36,1,0.408295891000307
S71,3,80,4.38202663467388,37,0,0.702812405000259
S71,4,100,4.60517018598809,38,0,0.84610584299935
S71,5,120,4.78749174278205,39,1,0.81345638699986
S71,4,100,4.60517018598809,40,0,1.32778924700051
S71,8,180,5.19295685089021,41,1,0.599878416000138
S71,5,120,4.78749174278205,42,1,1.3025390519997
S71,2,60,4.0943445622221,43,0,0.630277054000544
S71,3,80,4.38202663467388,44,0,0.699640992000241
S71,7,160,5.07517381523383,45,1,0.622019049000301
S71,8,180,5.19295685089021,46,1,0.407271545000185
S71,9,200,5.29831736654804,47,1,0.743065992999618
S71,2,60,4.0943445622221,48,0,0.772804266000094
S71,8,180,5.19295685089021,49,1,0.566446453999561
S71,1,40,3.68887945411394,50,1,0.600806289000502
S71,7,160,5.07517381523383,51,1,0.34156970299955
S71,9,200,5.29831736654804,52,1,0.633190362000278
S71,7,160,5.07517381523383,53,1,0.52430864300004
S71,5,120,4.78749174278205,54,1,0.811757395000313
S71,8,180,5.19295685089021,55,1,0.684040570000434
S71,6,140,4.9416424226093,56,1,1.69182272799935
S71,1,40,3.68887945411394,57,0,0.708628595999471
S71,1,40,3.68887945411394,58,0,0.54707766699994
S71,4,100,4.60517018598809,59,0,0.680981941000027
S71,7,160,5.07517381523383,60,1,0.679382364000048
S71,4,100,4.60517018598809,61,0,0.787720954999713
S71,2,60,4.0943445622221,62,0,1.05930983000053
S71,6,140,4.9416424226093,63,1,0.674570428999687
S71,4,100,4.60517018598809,64,0,0.72500411099918
S71,4,100,4.60517018598809,65,0,0.593977235999773
S72,5,120,4.78749174278205,1,0,1.18205035500068
S72,1,40,3.68887945411394,2,0,0.691526358999909
S72,8,180,5.19295685089021,3,1,0.63339973499933
S72,2,60,4.0943445622221,4,0,0.553342518000136
S72,5,120,4.78749174278205,5,1,0.429034147999118
S72,8,180,5.19295685089021,6,1,0.77043889900051
S72,5,120,4.78749174278205,7,0,1.4659092740003
S72,6,140,4.9416424226093,8,1,1.02411707300053
S72,9,200,5.29831736654804,9,1,0.699254547000237
S72,8,180,5.19295685089021,10,1,0.815690268000253
S72,4,100,4.60517018598809,11,0,0.928338081001129
S72,3,80,4.38202663467388,12,0,0.599099400000341
S72,3,80,4.38202663467388,13,0,0.599937476999912
S72,8,180,5.19295685089021,14,1,0.794914259000507
S72,3,80,4.38202663467388,15,0,0.486612530999992
S72,6,140,4.9416424226093,16,1,0.621737519999442
S72,6,140,4.9416424226093,17,1,0.697070911999617
S72,4,100,4.60517018598809,18,0,0.81126754700017
S72,2,60,4.0943445622221,19,0,0.462293430999125
S72,10,220,5.39362754635236,20,1,0.590866258999085
S72,6,140,4.9416424226093,21,1,1.10202150200166
S72,5,120,4.78749174278205,22,1,1.0052060149992
S72,10,220,5.39362754635236,23,1,0.637824879999243
S72,2,60,4.0943445622221,24,0,0.542358044998764
S72,2,60,4.0943445622221,25,0,0.472857963999559
S72,6,140,4.9416424226093,26,1,0.971496407000814
S72,3,80,4.38202663467388,27,0,0.539429372000086
S72,4,100,4.60517018598809,28,0,0.682731933999094
S72,5,120,4.78749174278205,29,1,0.874968099999023
S72,7,160,5.07517381523383,30,1,0.786982613999498
S72,8,180,5.19295685089021,31,1,0.771185137999055
S72,10,220,5.39362754635236,32,1,0.618442678000065
S72,5,120,4.78749174278205,33,1,0.923703196000133
S72,4,100,4.60517018598809,34,0,0.850924140000643
S72,4,100,4.60517018598809,35,0,0.562376538000535
S72,9,200,5.29831736654804,36,1,0.603786714000307
S72,4,100,4.60517018598809,37,0,0.67140556799859
S72,6,140,4.9416424226093,38,1,0.957095371999458
S72,8,180,5.19295685089021,39,1,0.666612969000198
S72,8,180,5.19295685089021,40,1,0.606712722001248
S72,7,160,5.07517381523383,41,1,0.701469820000057
S72,6,140,4.9416424226093,42,1,1.07781185199929
S72,7,160,5.07517381523383,43,1,1.01161099400088
S72,3,80,4.38202663467388,44,0,0.445443069998873
S72,5,120,4.78749174278205,45,0,0.902162481001142
S72,3,80,4.38202663467388,46,0,0.470328003000759
S72,9,200,5.29831736654804,47,1,0.525815298999078
S72,9,200,5.29831736654804,48,1,0.522964211999351
S72,7,160,5.07517381523383,49,1,0.660816635001538
S72,10,220,5.39362754635236,50,1,0.672658334000516
S72,3,80,4.38202663467388,51,0,0.609540891000506
S72,7,160,5.07517381523383,52,1,0.621554411000034
S72,4,100,4.60517018598809,53,0,0.67061842899966
S72,8,180,5.19295685089021,54,1,0.62020955799926
S72,6,140,4.9416424226093,55,1,0.681524327999796
S72,1,40,3.68887945411394,56,0,0.529850104001525
S72,4,100,4.60517018598809,57,0,0.73974766900028
S72,7,160,5.07517381523383,58,1,0.746807244000593
S72,7,160,5.07517381523383,59,1,0.620439276999605
S72,1,40,3.68887945411394,60,0,0.561537998999484
S72,3,80,4.38202663467388,61,0,0.569304626998928
S72,1,40,3.68887945411394,62,0,0.37988029600092
S72,7,160,5.07517381523383,63,1,0.532624014000248
S72,5,120,4.78749174278205,64,1,0.900525377999656
S72,5,120,4.78749174278205,65,1,0.570548605999647
S73,5,120,4.78749174278205,1,0,1.41073443400001
S73,7,160,5.07517381523383,2,1,1.83576584100001
S73,8,180,5.19295685089021,3,1,0.75483727400001
S73,7,160,5.07517381523383,4,1,1.01841001999992
S73,7,160,5.07517381523383,5,0,2.59467294399997
S73,2,60,4.0943445622221,6,0,0.488433948999955
S73,3,80,4.38202663467388,7,0,0.673835159999953
S73,5,120,4.78749174278205,8,0,0.891579683999908
S73,8,180,5.19295685089021,9,0,2.46962689099996
S73,3,80,4.38202663467388,10,0,0.764617126000076
S73,2,60,4.0943445622221,11,0,0.948070346000122
S73,4,100,4.60517018598809,12,0,0.939431008000156
S73,2,60,4.0943445622221,13,0,0.811977181999964
S73,6,140,4.9416424226093,14,1,1.07500381999989
S73,10,220,5.39362754635236,15,1,1.23564212999986
S73,5,120,4.78749174278205,16,0,1.68257209500007
S73,3,80,4.38202663467388,17,0,0.764327099000184
S73,9,200,5.29831736654804,18,1,1.10583088699991
S73,8,180,5.19295685089021,19,0,2.60220155999991
S73,5,120,4.78749174278205,20,0,0.974732984999946
S73,6,140,4.9416424226093,21,0,1.60597310399999
S73,2,60,4.0943445622221,22,0,0.792808753999907
S73,9,200,5.29831736654804,23,0,2.11310783399995
S73,10,220,5.39362754635236,24,1,0.862345319000042
S73,7,160,5.07517381523383,25,1,1.99998956800005
S73,3,80,4.38202663467388,26,0,0.682253499999888
S73,8,180,5.19295685089021,27,0,1.98460806399999
S73,6,140,4.9416424226093,28,1,2.07210395199991
S73,7,160,5.07517381523383,29,0,2.19119987099998
S73,4,100,4.60517018598809,30,0,0.70040837900001
S73,4,100,4.60517018598809,31,0,0.631424162999792
S73,5,120,4.78749174278205,32,0,0.812663082999961
S73,5,120,4.78749174278205,33,0,1.20945082600019
S73,9,200,5.29831736654804,34,1,1.15884089500014
S73,1,40,3.68887945411394,35,0,0.79551714299987
S73,7,160,5.07517381523383,36,0,1.34589659900007
S73,9,200,5.29831736654804,37,0,1.50191177900001
S73,3,80,4.38202663467388,38,0,0.716609436999988
S73,7,160,5.07517381523383,39,0,0.999530804999949
S73,5,120,4.78749174278205,40,0,0.999720889999935
S73,4,100,4.60517018598809,41,0,0.834156248999989
S73,6,140,4.9416424226093,42,0,1.37114512999983
S73,4,100,4.60517018598809,43,0,0.655934451000121
S73,8,180,5.19295685089021,44,1,1.73368364399994
S73,10,220,5.39362754635236,45,1,1.10857159600005
S73,4,100,4.60517018598809,46,0,0.506477878999931
S73,3,80,4.38202663467388,47,0,0.647868698999901
S73,3,80,4.38202663467388,48,0,0.705783373000031
S73,6,140,4.9416424226093,49,0,2.80651188100001
S73,3,80,4.38202663467388,50,0,0.740282122000053
S73,4,100,4.60517018598809,51,0,0.65165078799987
S73,7,160,5.07517381523383,52,0,0.945671009999842
S73,6,140,4.9416424226093,53,1,0.864351704000001
S73,6,140,4.9416424226093,54,0,1.36986953799988
S73,8,180,5.19295685089021,55,1,1.30484810999997
S73,8,180,5.19295685089021,56,1,0.784177
S73,1,40,3.68887945411394,57,0,1.04845553899986
S73,1,40,3.68887945411394,58,0,0.835595262999959
S73,8,180,5.19295685089021,59,0,1.11651612700007
S73,4,100,4.60517018598809,60,0,0.802163636000159
S73,10,220,5.39362754635236,61,1,2.13463702900003
S73,6,140,4.9416424226093,62,1,1.84910097599982
S73,5,120,4.78749174278205,63,0,1.48601697499998
S73,1,40,3.68887945411394,64,0,0.85313178399997
S73,5,120,4.78749174278205,65,0,1.17669054500016
S74,3,80,4.38202663467388,1,0,0.632655500000055
S74,3,80,4.38202663467388,2,0,0.806437179000113
S74,1,40,3.68887945411394,3,0,0.866197171000294
S74,8,180,5.19295685089021,4,1,0.857912014000249
S74,6,140,4.9416424226093,5,0,1.90342792199999
S74,9,200,5.29831736654804,6,1,1.97549779300016
S74,8,180,5.19295685089021,7,1,0.906708504000107
S74,3,80,4.38202663467388,8,0,0.699641772000177
S74,6,140,4.9416424226093,9,0,1.05394092699999
S74,3,80,4.38202663467388,10,0,0.586974135999753
S74,5,120,4.78749174278205,11,0,1.54765910399965
S74,5,120,4.78749174278205,12,1,0.985418484000093
S74,3,80,4.38202663467388,13,0,0.664918989999933
S74,7,160,5.07517381523383,14,1,0.833285342000181
S74,7,160,5.07517381523383,15,1,0.91415955399998
S74,1,40,3.68887945411394,16,0,0.878848371999993
S74,4,100,4.60517018598809,17,0,0.820483720000084
S74,2,60,4.0943445622221,18,0,0.709272887999759
S74,9,200,5.29831736654804,19,1,0.855488750000404
S74,10,220,5.39362754635236,20,1,0.858956985999612
S74,6,140,4.9416424226093,21,1,0.884474016999775
S74,4,100,4.60517018598809,22,0,1.83073907299968
S74,5,120,4.78749174278205,23,1,1.50546417700025
S74,8,180,5.19295685089021,24,1,0.726317644999654
S74,7,160,5.07517381523383,25,1,1.51519859400014
S74,5,120,4.78749174278205,26,0,1.83852614899934
S74,2,60,4.0943445622221,27,0,0.603501071999744
S74,2,60,4.0943445622221,28,0,0.670604218000335
S74,7,160,5.07517381523383,29,1,0.718780440000046
S74,9,200,5.29831736654804,30,1,0.575719987000411
S74,2,60,4.0943445622221,31,0,0.683947808000084
S74,6,140,4.9416424226093,32,1,0.652136939000229
S74,5,120,4.78749174278205,33,0,1.31599772200025
S74,6,140,4.9416424226093,34,1,1.22358044999964
S74,6,140,4.9416424226093,35,1,0.955883679999715
S74,1,40,3.68887945411394,36,0,0.410633965999295
S74,5,120,4.78749174278205,37,1,0.853352594999706
S74,10,220,5.39362754635236,38,1,0.685428787999626
S74,4,100,4.60517018598809,39,0,1.209862488
S74,3,80,4.38202663467388,40,0,0.620842391999759
S74,8,180,5.19295685089021,41,1,1.14460982000037
S74,1,40,3.68887945411394,42,0,0.442996264000612
S74,3,80,4.38202663467388,43,0,0.660260857000139
S74,4,100,4.60517018598809,44,0,1.1453737970005
S74,7,160,5.07517381523383,45,1,0.701857842000209
S74,3,80,4.38202663467388,46,0,0.630931839000368
S74,10,220,5.39362754635236,47,1,0.824093033999816
S74,5,120,4.78749174278205,48,1,1.22090236500026
S74,4,100,4.60517018598809,49,0,1.07724259399947
S74,10,220,5.39362754635236,50,1,0.681870043999879
S74,7,160,5.07517381523383,51,1,1.11878615000023
S74,6,140,4.9416424226093,52,1,0.688443514999562
S74,7,160,5.07517381523383,53,1,1.02323340900057
S74,4,100,4.60517018598809,54,0,1.02154698599952
S74,4,100,4.60517018598809,55,0,0.851455208000516
S74,6,140,4.9416424226093,56,1,0.819069608999598
S74,8,180,5.19295685089021,57,1,0.645745188999172
S74,4,100,4.60517018598809,58,0,0.579576654000448
S74,8,180,5.19295685089021,59,1,0.772187574999407
S74,5,120,4.78749174278205,60,0,1.44420402099968
S74,7,160,5.07517381523383,61,0,1.45529517999967
S74,8,180,5.19295685089021,62,0,0.965769005000766
S74,8,180,5.19295685089021,63,0,2.47527542100033
S74,9,200,5.29831736654804,64,1,1.02950819099988
S74,3,80,4.38202663467388,65,0,0.531749138000123
S75,8,180,5.19295685089021,1,1,1.06641555799979
S75,3,80,4.38202663467388,2,0,0.875582587999816
S75,5,120,4.78749174278205,3,1,1.916934416
S75,3,80,4.38202663467388,4,0,0.836512890999074
S75,7,160,5.07517381523383,5,1,0.889929365999706
S75,4,100,4.60517018598809,6,0,1.10150309999881
S75,5,120,4.78749174278205,7,1,1.30063226100174
S75,5,120,4.78749174278205,8,1,1.60552691500015
S75,2,60,4.0943445622221,9,0,0.85681517500052
S75,3,80,4.38202663467388,10,0,0.833666061000258
S75,8,180,5.19295685089021,11,0,0.852559095999823
S75,5,120,4.78749174278205,12,0,2.23320580400105
S75,9,200,5.29831736654804,13,1,0.887074179001502
S75,4,100,4.60517018598809,14,0,1.38872138700026
S75,4,100,4.60517018598809,15,1,3.54019005800001
S75,10,220,5.39362754635236,16,1,0.877558782000051
S75,7,160,5.07517381523383,17,1,0.833048268001221
S75,5,120,4.78749174278205,18,1,1.69842060699921
S75,8,180,5.19295685089021,19,1,1.03879479399984
S75,7,160,5.07517381523383,20,1,1.72958719300004
S75,7,160,5.07517381523383,21,1,0.776230235000185
S75,3,80,4.38202663467388,22,0,0.936105871998734
S75,9,200,5.29831736654804,23,1,0.934841434000191
S75,3,80,4.38202663467388,24,0,0.856230164999943
S75,4,100,4.60517018598809,25,0,2.29757110699938
S75,6,140,4.9416424226093,26,0,1.33668598300028
S75,7,160,5.07517381523383,27,1,1.02473660800024
S75,10,220,5.39362754635236,28,1,0.996782056001393
S75,9,200,5.29831736654804,29,1,1.17476544900092
S75,6,140,4.9416424226093,30,1,1.7205389239989
S75,10,220,5.39362754635236,31,1,1.07339090200003
S75,2,60,4.0943445622221,32,0,0.7982653020008
S75,4,100,4.60517018598809,33,0,1.26912885000093
S75,3,80,4.38202663467388,34,0,1.05582540899923
S75,3,80,4.38202663467388,35,0,0.758710415000678
S75,1,40,3.68887945411394,36,0,0.954038359999686
S75,9,200,5.29831736654804,37,1,0.783484765001049
S75,8,180,5.19295685089021,38,1,0.843698029999359
S75,1,40,3.68887945411394,39,0,0.938721139000336
S75,2,60,4.0943445622221,40,0,1.31118122999942
S75,6,140,4.9416424226093,41,1,1.62088052900071
S75,6,140,4.9416424226093,42,1,1.13803480100069
S75,8,180,5.19295685089021,43,1,0.978546529000596
S75,10,220,5.39362754635236,44,1,1.01118182200116
S75,5,120,4.78749174278205,45,1,1.21176431899949
S75,4,100,4.60517018598809,46,0,1.66140707199884
S75,2,60,4.0943445622221,47,0,0.835247548000552
S75,7,160,5.07517381523383,48,1,1.49998620199949
S75,8,180,5.19295685089021,49,1,0.961540042000706
S75,4,100,4.60517018598809,50,0,2.20423794799899
S75,7,160,5.07517381523383,51,1,2.3478578560007
S75,6,140,4.9416424226093,52,1,0.969996421001269
S75,4,100,4.60517018598809,53,0,1.71690020599999
S75,8,180,5.19295685089021,54,1,0.906457212000532
S75,8,180,5.19295685089021,55,1,1.30039980899892
S75,6,140,4.9416424226093,56,0,2.79616569400059
S75,5,120,4.78749174278205,57,0,2.0702381250012
S75,7,160,5.07517381523383,58,1,2.77307862099951
S75,1,40,3.68887945411394,59,0,0.783284672999798
S75,5,120,4.78749174278205,60,1,1.38957903000119
S75,6,140,4.9416424226093,61,1,2.05423185400105
S75,3,80,4.38202663467388,62,0,0.936842062999858
S75,6,140,4.9416424226093,63,1,2.76370027499979
S75,1,40,3.68887945411394,64,0,0.777330568000252
S75,8,180,5.19295685089021,65,1,0.903206902999955
